[
  {
    "STUDYID": "CDISCPILOT01",
    "DOMAIN": "DM",
    "USUBJID": "01-701-1015",
    "SUBJID": "1015",
    "RFSTDTC": "2014-01-02",
    "RFENDTC": "2014-07-02",
    "RFXSTDTC": "2014-01-02",
    "RFXENDTC": "2014-07-02",
    "RFICDTC": "2013-12-26",
    "RFPENDTC": "2014-07-02T11:45",
    "DTHDTC": "",
    "DTHFL": "",
    "SITEID": "701",
    "AGE": 63.0,
    "AGEU": "YEARS",
    "SEX": "F",
    "RACE": "WHITE",
    "ETHNIC": "HISPANIC OR LATINO",
    "ARMCD": "Pbo",
    "ARM": "Placebo",
    "ACTARMCD": "Pbo",
    "ACTARM": "Placebo",
    "COUNTRY": "USA",
    "DMDTC": "2013-12-26",
    "DMDY": -7.0,
    "BRTHDTC": "1980"
  },
  {
    "STUDYID": "CDISCPILOT01",
    "DOMAIN": "DM",
    "USUBJID": "01-701-1023",
    "SUBJID": "1023",
    "RFSTDTC": "2012-08-05",
    "RFENDTC": "2012-09-02",
    "RFXSTDTC": "2012-08-05",
    "RFXENDTC": "2012-09-01",
    "RFICDTC": "2012-07-22",
    "RFPENDTC": "2013-02-18",
    "DTHDTC": "",
    "DTHFL": "",
    "SITEID": "701",
    "AGE": 64.0,
    "AGEU": "YEARS",
    "SEX": "M",
    "RACE": "WHITE",
    "ETHNIC": "HISPANIC OR LATINO",
    "ARMCD": "Pbo",
    "ARM": "Placebo",
    "ACTARMCD": "Pbo",
    "ACTARM": "Placebo",
    "COUNTRY": "USA",
    "DMDTC": "2012-07-22",
    "DMDY": -14.0,
    "BRTHDTC": "1980"
  },
  {
    "STUDYID": "CDISCPILOT01",
    "DOMAIN": "DM",
    "USUBJID": "01-701-1028",
    "SUBJID": "1028",
    "RFSTDTC": "2013-07-19",
    "RFENDTC": "2014-01-14",
    "RFXSTDTC": "2013-07-19",
    "RFXENDTC": "2014-01-14",
    "RFICDTC": "2013-07-11",
    "RFPENDTC": "2014-01-14T11:10",
    "DTHDTC": "",
    "DTHFL": "",
    "SITEID": "701",
    "AGE": 71.0,
    "AGEU": "YEARS",
    "SEX": "M",
    "RACE": "WHITE",
    "ETHNIC": "NOT HISPANIC OR LATINO",
    "ARMCD": "Xan_Hi",
    "ARM": "Xanomeline High Dose",
    "ACTARMCD": "Xan_Hi",
    "ACTARM": "Xanomeline High Dose",
    "COUNTRY": "USA",
    "DMDTC": "2013-07-11",
    "DMDY": -8.0,
    "BRTHDTC": "1980"
  },
  {
    "STUDYID": "CDISCPILOT01",
    "DOMAIN": "DM",
    "USUBJID": "01-701-1033",
    "SUBJID": "1033",
    "RFSTDTC": "2014-03-18",
    "RFENDTC": "2014-04-14",
    "RFXSTDTC": "2014-03-18",
    "RFXENDTC": "2014-03-31",
    "RFICDTC": "2014-03-10",
    "RFPENDTC": "2014-09-15",
    "DTHDTC": "",
    "DTHFL": "",
    "SITEID": "701",
    "AGE": 74.0,
    "AGEU": "YEARS",
    "SEX": "M",
    "RACE": "WHITE",
    "ETHNIC": "NOT HISPANIC OR LATINO",
    "ARMCD": "Xan_Lo",
    "ARM": "Xanomeline Low Dose",
    "ACTARMCD": "Xan_Lo",
    "ACTARM": "Xanomeline Low Dose",
    "COUNTRY": "USA",
    "DMDTC": "2014-03-10",
    "DMDY": -8.0,
    "BRTHDTC": "1980"
  },
  {
    "STUDYID": "CDISCPILOT01",
    "DOMAIN": "DM",
    "USUBJID": "01-701-1034",
    "SUBJID": "1034",
    "RFSTDTC": "2014-07-01",
    "RFENDTC": "2014-12-30",
    "RFXSTDTC": "2014-07-01",
    "RFXENDTC": "2014-12-30",
    "RFICDTC": "2014-06-24",
    "RFPENDTC": "2014-12-30T09:50",
    "DTHDTC": "",
    "DTHFL": "",
    "SITEID": "701",
    "AGE": 77.0,
    "AGEU": "YEARS",
    "SEX": "F",
    "RACE": "WHITE",
    "ETHNIC": "NOT HISPANIC OR LATINO",
    "ARMCD": "Xan_Hi",
    "ARM": "Xanomeline High Dose",
    "ACTARMCD": "Xan_Hi",
    "ACTARM": "Xanomeline High Dose",
    "COUNTRY": "USA",
    "DMDTC": "2014-06-24",
    "DMDY": -7.0,
    "BRTHDTC": "1980"
  },
  {
    "STUDYID": "CDISCPILOT01",
    "DOMAIN": "DM",
    "USUBJID": "01-701-1047",
    "SUBJID": "1047",
    "RFSTDTC": "2013-02-12",
    "RFENDTC": "2013-03-29",
    "RFXSTDTC": "2013-02-12",
    "RFXENDTC": "2013-03-09",
    "RFICDTC": "2013-01-22",
    "RFPENDTC": "2013-07-28",
    "DTHDTC": "",
    "DTHFL": "",
    "SITEID": "701",
    "AGE": 85.0,
    "AGEU": "YEARS",
    "SEX": "F",
    "RACE": "WHITE",
    "ETHNIC": "NOT HISPANIC OR LATINO",
    "ARMCD": "Pbo",
    "ARM": "Placebo",
    "ACTARMCD": "Pbo",
    "ACTARM": "Placebo",
    "COUNTRY": "USA",
    "DMDTC": "2013-01-22",
    "DMDY": -21.0,
    "BRTHDTC": "1980"
  },
  {
    "STUDYID": "CDISCPILOT01",
    "DOMAIN": "DM",
    "USUBJID": "01-701-1057",
    "SUBJID": "1057",
    "RFSTDTC": "",
    "RFENDTC": "",
    "RFXSTDTC": "",
    "RFXENDTC": "",
    "RFICDTC": "2013-12-20",
    "RFPENDTC": "2013-12-27",
    "DTHDTC": "",
    "DTHFL": "",
    "SITEID": "701",
    "AGE": 59.0,
    "AGEU": "YEARS",
    "SEX": "F",
    "RACE": "WHITE",
    "ETHNIC": "HISPANIC OR LATINO",
    "ARMCD": "Scrnfail",
    "ARM": "Screen Failure",
    "ACTARMCD": "Scrnfail",
    "ACTARM": "Screen Failure",
    "COUNTRY": "USA",
    "DMDTC": "2013-12-20",
    "DMDY": "",
    "BRTHDTC": "1980"
  },
  {
    "STUDYID": "CDISCPILOT01",
    "DOMAIN": "DM",
    "USUBJID": "01-701-1097",
    "SUBJID": "1097",
    "RFSTDTC": "2014-01-01",
    "RFENDTC": "2014-07-09",
    "RFXSTDTC": "2014-01-01",
    "RFXENDTC": "2014-07-09",
    "RFICDTC": "2013-12-23",
    "RFPENDTC": "2014-07-09T09:39",
    "DTHDTC": "",
    "DTHFL": "",
    "SITEID": "701",
    "AGE": 68.0,
    "AGEU": "YEARS",
    "SEX": "M",
    "RACE": "WHITE",
    "ETHNIC": "NOT HISPANIC OR LATINO",
    "ARMCD": "Xan_Lo",
    "ARM": "Xanomeline Low Dose",
    "ACTARMCD": "Xan_Lo",
    "ACTARM": "Xanomeline Low Dose",
    "COUNTRY": "USA",
    "DMDTC": "2013-12-23",
    "DMDY": -9.0,
    "BRTHDTC": "1980"
  },
  {
    "STUDYID": "CDISCPILOT01",
    "DOMAIN": "DM",
    "USUBJID": "01-701-1111",
    "SUBJID": "1111",
    "RFSTDTC": "2012-09-07",
    "RFENDTC": "2012-09-17",
    "RFXSTDTC": "2012-09-07",
    "RFXENDTC": "2012-09-16",
    "RFICDTC": "2012-08-25",
    "RFPENDTC": "2013-02-22",
    "DTHDTC": "",
    "DTHFL": "",
    "SITEID": "701",
    "AGE": 81.0,
    "AGEU": "YEARS",
    "SEX": "F",
    "RACE": "WHITE",
    "ETHNIC": "NOT HISPANIC OR LATINO",
    "ARMCD": "Xan_Lo",
    "ARM": "Xanomeline Low Dose",
    "ACTARMCD": "Xan_Lo",
    "ACTARM": "Xanomeline Low Dose",
    "COUNTRY": "USA",
    "DMDTC": "2012-08-25",
    "DMDY": -13.0,
    "BRTHDTC": "1980"
  },
  {
    "STUDYID": "CDISCPILOT01",
    "DOMAIN": "DM",
    "USUBJID": "01-701-1115",
    "SUBJID": "1115",
    "RFSTDTC": "2012-11-30",
    "RFENDTC": "2013-01-23",
    "RFXSTDTC": "2012-11-30",
    "RFXENDTC": "2013-01-23",
    "RFICDTC": "2012-11-23",
    "RFPENDTC": "2013-05-20",
    "DTHDTC": "",
    "DTHFL": "",
    "SITEID": "701",
    "AGE": 84.0,
    "AGEU": "YEARS",
    "SEX": "M",
    "RACE": "WHITE",
    "ETHNIC": "NOT HISPANIC OR LATINO",
    "ARMCD": "Xan_Lo",
    "ARM": "Xanomeline Low Dose",
    "ACTARMCD": "Xan_Lo",
    "ACTARM": "Xanomeline Low Dose",
    "COUNTRY": "USA",
    "DMDTC": "2012-11-23",
    "DMDY": -7.0,
    "BRTHDTC": "1980"
  }
]