[
  {
    "STUDYID": "CDISCPILOT01",
    "DOMAIN": "DS",
    "USUBJID": "CDISC001",
    "DSSEQ": 1.0,
    "DSLNKID": "",
    "DSTERM": "INFORMED CONSENT OBTAINED",
    "DSDECOD": "INFORMED CONSENT OBTAINED",
    "DSCAT": "PROTOCOL MILESTONE",
    "DSSCAT": "",
    "EPOCH": "SCREENING",
    "DSSTDTC": "2012-11-23",
    "DSSTDY": -7.0
  },
  {
    "STUDYID": "CDISCPILOT01",
    "DOMAIN": "DS",
    "USUBJID": "CDISC001",
    "DSSEQ": 2.0,
    "DSLNKID": "1",
    "DSTERM": "INJECTION SITE REACTION",
    "DSDECOD": "ADVERSE EVENT",
    "DSCAT": "DISPOSITION EVENT",
    "DSSCAT": "STUDY PARTICIPATION",
    "EPOCH": "TREATMENT",
    "DSSTDTC": "2013-01-23",
    "DSSTDY": 55.0
  },
  {
    "STUDYID": "CDISCPILOT01",
    "DOMAIN": "DS",
    "USUBJID": "CDISC001",
    "DSSEQ": 3.0,
    "DSLNKID": "1",
    "DSTERM": "INJECTION SITE REACTION",
    "DSDECOD": "ADVERSE EVENT",
    "DSCAT": "DISPOSITION EVENT",
    "DSSCAT": "STUDY TREATMENT",
    "EPOCH": "TREATMENT",
    "DSSTDTC": "2013-01-23",
    "DSSTDY": 55.0
  },
  {
    "STUDYID": "CDISCPILOT01",
    "DOMAIN": "DS",
    "USUBJID": "CDISC002",
    "DSSEQ": 1.0,
    "DSLNKID": "",
    "DSTERM": "INFORMED CONSENT OBTAINED",
    "DSDECOD": "INFORMED CONSENT OBTAINED",
    "DSCAT": "PROTOCOL MILESTONE",
    "DSSCAT": "",
    "EPOCH": "SCREENING",
    "DSSTDTC": "2012-10-30",
    "DSSTDY": -16.0
  },
  {
    "STUDYID": "CDISCPILOT01",
    "DOMAIN": "DS",
    "USUBJID": "CDISC002",
    "DSSEQ": 2.0,
    "DSLNKID": "8",
    "DSTERM": "DYSPNOEA",
    "DSDECOD": "ADVERSE EVENT",
    "DSCAT": "DISPOSITION EVENT",
    "DSSCAT": "STUDY TREATMENT",
    "EPOCH": "TREATMENT",
    "DSSTDTC": "2013-01-12",
    "DSSTDY": 59.0
  },
  {
    "STUDYID": "CDISCPILOT01",
    "DOMAIN": "DS",
    "USUBJID": "CDISC002",
    "DSSEQ": 3.0,
    "DSLNKID": "9",
    "DSTERM": "SUDDEN DEATH",
    "DSDECOD": "DEATH",
    "DSCAT": "DISPOSITION EVENT",
    "DSSCAT": "STUDY PARTICIPATION",
    "EPOCH": "TREATMENT",
    "DSSTDTC": "2013-01-14",
    "DSSTDY": 61.0
  },
  {
    "STUDYID": "CDISCPILOT01",
    "DOMAIN": "DS",
    "USUBJID": "CDISC003",
    "DSSEQ": 1.0,
    "DSLNKID": "",
    "DSTERM": "INFORMED CONSENT OBTAINED",
    "DSDECOD": "INFORMED CONSENT OBTAINED",
    "DSCAT": "PROTOCOL MILESTONE",
    "DSSCAT": "",
    "EPOCH": "SCREENING",
    "DSSTDTC": "2013-08-20",
    "DSSTDY": -9.0
  },
  {
    "STUDYID": "CDISCPILOT01",
    "DOMAIN": "DS",
    "USUBJID": "CDISC003",
    "DSSEQ": 3.0,
    "DSLNKID": "20",
    "DSTERM": "LISTLESS",
    "DSDECOD": "ADVERSE EVENT",
    "DSCAT": "DISPOSITION EVENT",
    "DSSCAT": "STUDY PARTICIPATION",
    "EPOCH": "TREATMENT",
    "DSSTDTC": "2013-11-05",
    "DSSTDY": 69.0
  },
  {
    "STUDYID": "CDISCPILOT01",
    "DOMAIN": "DS",
    "USUBJID": "CDISC003",
    "DSSEQ": 2.0,
    "DSLNKID": "20",
    "DSTERM": "LISTLESS",
    "DSDECOD": "ADVERSE EVENT",
    "DSCAT": "DISPOSITION EVENT",
    "DSSCAT": "STUDY TREATMENT",
    "EPOCH": "TREATMENT",
    "DSSTDTC": "2013-11-05",
    "DSSTDY": 69.0
  },
  {
    "STUDYID": "CDISCPILOT01",
    "DOMAIN": "DS",
    "USUBJID": "CDISC004",
    "DSSEQ": 1.0,
    "DSLNKID": "",
    "DSTERM": "INFORMED CONSENT OBTAINED",
    "DSDECOD": "INFORMED CONSENT OBTAINED",
    "DSCAT": "PROTOCOL MILESTONE",
    "DSSCAT": "",
    "EPOCH": "SCREENING",
    "DSSTDTC": "2013-10-01",
    "DSSTDY": -7.0
  },
  {
    "STUDYID": "CDISCPILOT01",
    "DOMAIN": "DS",
    "USUBJID": "CDISC004",
    "DSSEQ": 2.0,
    "DSLNKID": "",
    "DSTERM": "PHYSICIAN DECISION",
    "DSDECOD": "PHYSICIAN DECISION",
    "DSCAT": "DISPOSITION EVENT",
    "DSSCAT": "STUDY PARTICIPATION",
    "EPOCH": "TREATMENT",
    "DSSTDTC": "2014-03-18",
    "DSSTDY": 162.0
  },
  {
    "STUDYID": "CDISCPILOT01",
    "DOMAIN": "DS",
    "USUBJID": "CDISC004",
    "DSSEQ": 3.0,
    "DSLNKID": "",
    "DSTERM": "PHYSICIAN DECISION",
    "DSDECOD": "PHYSICIAN DECISION",
    "DSCAT": "DISPOSITION EVENT",
    "DSSCAT": "STUDY TREATMENT",
    "EPOCH": "TREATMENT",
    "DSSTDTC": "2014-03-18",
    "DSSTDY": 162.0
  },
  {
    "STUDYID": "CDISCPILOT01",
    "DOMAIN": "DS",
    "USUBJID": "CDISC005",
    "DSSEQ": 1.0,
    "DSLNKID": "",
    "DSTERM": "INFORMED CONSENT OBTAINED",
    "DSDECOD": "INFORMED CONSENT OBTAINED",
    "DSCAT": "PROTOCOL MILESTONE",
    "DSSCAT": "",
    "EPOCH": "SCREENING",
    "DSSTDTC": "2013-01-22",
    "DSSTDY": -13.0
  },
  {
    "STUDYID": "CDISCPILOT01",
    "DOMAIN": "DS",
    "USUBJID": "CDISC005",
    "DSSEQ": 2.0,
    "DSLNKID": "",
    "DSTERM": "COMPLETED",
    "DSDECOD": "COMPLETED",
    "DSCAT": "DISPOSITION EVENT",
    "DSSCAT": "STUDY PARTICIPATION",
    "EPOCH": "TREATMENT",
    "DSSTDTC": "2013-08-06",
    "DSSTDY": 184.0
  },
  {
    "STUDYID": "CDISCPILOT01",
    "DOMAIN": "DS",
    "USUBJID": "CDISC005",
    "DSSEQ": 3.0,
    "DSLNKID": "",
    "DSTERM": "COMPLETED",
    "DSDECOD": "COMPLETED",
    "DSCAT": "DISPOSITION EVENT",
    "DSSCAT": "STUDY TREATMENT",
    "EPOCH": "TREATMENT",
    "DSSTDTC": "2013-08-06",
    "DSSTDY": 184.0
  },
  {
    "STUDYID": "CDISCPILOT01",
    "DOMAIN": "DS",
    "USUBJID": "CDISC006",
    "DSSEQ": 1.0,
    "DSLNKID": "",
    "DSTERM": "INFORMED CONSENT OBTAINED",
    "DSDECOD": "INFORMED CONSENT OBTAINED",
    "DSCAT": "PROTOCOL MILESTONE",
    "DSSCAT": "",
    "EPOCH": "SCREENING",
    "DSSTDTC": "2013-02-25",
    "DSSTDY": -22.0
  },
  {
    "STUDYID": "CDISCPILOT01",
    "DOMAIN": "DS",
    "USUBJID": "CDISC006",
    "DSSEQ": 2.0,
    "DSLNKID": "",
    "DSTERM": "WITHDRAWAL BY SUBJECT",
    "DSDECOD": "WITHDRAWAL BY SUBJECT",
    "DSCAT": "DISPOSITION EVENT",
    "DSSCAT": "STUDY PARTICIPATION",
    "EPOCH": "TREATMENT",
    "DSSTDTC": "2013-04-30",
    "DSSTDY": 43.0
  },
  {
    "STUDYID": "CDISCPILOT01",
    "DOMAIN": "DS",
    "USUBJID": "CDISC006",
    "DSSEQ": 3.0,
    "DSLNKID": "",
    "DSTERM": "WITHDRAWAL BY SUBJECT",
    "DSDECOD": "WITHDRAWAL BY SUBJECT",
    "DSCAT": "DISPOSITION EVENT",
    "DSSCAT": "STUDY TREATMENT",
    "EPOCH": "TREATMENT",
    "DSSTDTC": "2013-04-30",
    "DSSTDY": 43.0
  },
  {
    "STUDYID": "CDISCPILOT01",
    "DOMAIN": "DS",
    "USUBJID": "CDISC007",
    "DSSEQ": 1.0,
    "DSLNKID": "",
    "DSTERM": "INFORMED CONSENT OBTAINED",
    "DSDECOD": "INFORMED CONSENT OBTAINED",
    "DSCAT": "PROTOCOL MILESTONE",
    "DSSCAT": "",
    "EPOCH": "SCREENING",
    "DSSTDTC": "2012-12-31",
    "DSSTDY": -5.0
  },
  {
    "STUDYID": "CDISCPILOT01",
    "DOMAIN": "DS",
    "USUBJID": "CDISC007",
    "DSSEQ": 2.0,
    "DSLNKID": "1",
    "DSTERM": "INJECTION SITE REACTION",
    "DSDECOD": "ADVERSE EVENT",
    "DSCAT": "DISPOSITION EVENT",
    "DSSCAT": "STUDY TREATMENT",
    "EPOCH": "TREATMENT",
    "DSSTDTC": "2013-02-12",
    "DSSTDY": 39.0
  },
  {
    "STUDYID": "CDISCPILOT01",
    "DOMAIN": "DS",
    "USUBJID": "CDISC007",
    "DSSEQ": 3.0,
    "DSLNKID": "1",
    "DSTERM": "INJECTION SITE REACTION",
    "DSDECOD": "ADVERSE EVENT",
    "DSCAT": "DISPOSITION EVENT",
    "DSSCAT": "STUDY PARTICIPATION",
    "EPOCH": "TREATMENT",
    "DSSTDTC": "2013-02-13",
    "DSSTDY": 40.0
  },
  {
    "STUDYID": "CDISCPILOT01",
    "DOMAIN": "DS",
    "USUBJID": "CDISC008",
    "DSSEQ": 1.0,
    "DSLNKID": "",
    "DSTERM": "INFORMED CONSENT OBTAINED",
    "DSDECOD": "INFORMED CONSENT OBTAINED",
    "DSCAT": "PROTOCOL MILESTONE",
    "DSSCAT": "",
    "EPOCH": "SCREENING",
    "DSSTDTC": "2014-05-01",
    "DSSTDY": -10.0
  },
  {
    "STUDYID": "CDISCPILOT01",
    "DOMAIN": "DS",
    "USUBJID": "CDISC008",
    "DSSEQ": 3.0,
    "DSLNKID": "1",
    "DSTERM": "COMPLETED SUICIDE",
    "DSDECOD": "DEATH",
    "DSCAT": "DISPOSITION EVENT",
    "DSSCAT": "STUDY PARTICIPATION",
    "EPOCH": "TREATMENT",
    "DSSTDTC": "2014-11-01",
    "DSSTDY": 175.0
  },
  {
    "STUDYID": "CDISCPILOT01",
    "DOMAIN": "DS",
    "USUBJID": "CDISC008",
    "DSSEQ": 2.0,
    "DSLNKID": "1",
    "DSTERM": "COMPLETED SUICIDE",
    "DSDECOD": "DEATH",
    "DSCAT": "DISPOSITION EVENT",
    "DSSCAT": "STUDY TREATMENT",
    "EPOCH": "TREATMENT",
    "DSSTDTC": "2014-11-01",
    "DSSTDY": 175.0
  },
  {
    "STUDYID": "CDISCPILOT01",
    "DOMAIN": "DS",
    "USUBJID": "CDISC009",
    "DSSEQ": 1.0,
    "DSLNKID": "",
    "DSTERM": "INFORMED CONSENT OBTAINED",
    "DSDECOD": "INFORMED CONSENT OBTAINED",
    "DSCAT": "PROTOCOL MILESTONE",
    "DSSCAT": "",
    "EPOCH": "SCREENING",
    "DSSTDTC": "2012-10-06",
    "DSSTDY": -16.0
  },
  {
    "STUDYID": "CDISCPILOT01",
    "DOMAIN": "DS",
    "USUBJID": "CDISC009",
    "DSSEQ": 2.0,
    "DSLNKID": "",
    "DSTERM": "COMPLETED",
    "DSDECOD": "COMPLETED",
    "DSCAT": "DISPOSITION EVENT",
    "DSSCAT": "STUDY PARTICIPATION",
    "EPOCH": "TREATMENT",
    "DSSTDTC": "2013-04-28",
    "DSSTDY": 189.0
  },
  {
    "STUDYID": "CDISCPILOT01",
    "DOMAIN": "DS",
    "USUBJID": "CDISC009",
    "DSSEQ": 3.0,
    "DSLNKID": "",
    "DSTERM": "COMPLETED",
    "DSDECOD": "COMPLETED",
    "DSCAT": "DISPOSITION EVENT",
    "DSSCAT": "STUDY TREATMENT",
    "EPOCH": "TREATMENT",
    "DSSTDTC": "2013-04-28",
    "DSSTDY": 189.0
  },
  {
    "STUDYID": "CDISCPILOT01",
    "DOMAIN": "DS",
    "USUBJID": "CDISC010",
    "DSSEQ": 1.0,
    "DSLNKID": "",
    "DSTERM": "INFORMED CONSENT OBTAINED",
    "DSDECOD": "INFORMED CONSENT OBTAINED",
    "DSCAT": "PROTOCOL MILESTONE",
    "DSSCAT": "",
    "EPOCH": "SCREENING",
    "DSSTDTC": "2013-09-08",
    "DSSTDY": -13.0
  },
  {
    "STUDYID": "CDISCPILOT01",
    "DOMAIN": "DS",
    "USUBJID": "CDISC010",
    "DSSEQ": 2.0,
    "DSLNKID": "",
    "DSTERM": "WITHDRAWAL BY SUBJECT",
    "DSDECOD": "WITHDRAWAL BY SUBJECT",
    "DSCAT": "DISPOSITION EVENT",
    "DSSCAT": "STUDY TREATMENT",
    "EPOCH": "TREATMENT",
    "DSSTDTC": "2013-09-21",
    "DSSTDY": 1.0
  },
  {
    "STUDYID": "CDISCPILOT01",
    "DOMAIN": "DS",
    "USUBJID": "CDISC010",
    "DSSEQ": 3.0,
    "DSLNKID": "",
    "DSTERM": "WITHDRAWAL BY SUBJECT",
    "DSDECOD": "WITHDRAWAL BY SUBJECT",
    "DSCAT": "DISPOSITION EVENT",
    "DSSCAT": "STUDY PARTICIPATION",
    "EPOCH": "TREATMENT",
    "DSSTDTC": "2013-09-26",
    "DSSTDY": 6.0
  }
]