[
  {
    "STUDYID": "CDISCPILOT01",
    "DOMAIN": "EX",
    "USUBJID": "CDISC001",
    "SPDEVID": "DEV0001",
    "EXSEQ": 1.0,
    "EXTRT": "ZANOMALINE",
    "EXDOSE": 54.0,
    "EXDOSU": "mg",
    "EXDOSFRM": "INJECTION",
    "EXDOSFRQ": "QD",
    "EXROUTE": "SUBCUTANEOUS",
    "EXLOT": "SDS580-359",
    "EPOCH": "TREATMENT",
    "EXSTDTC": "2012-11-30",
    "EXENDTC": "2012-11-30",
    "EXSTDY": 1.0,
    "EXENDY": 1.0
  },
  {
    "STUDYID": "CDISCPILOT01",
    "DOMAIN": "EX",
    "USUBJID": "CDISC001",
    "SPDEVID": "DEV0001",
    "EXSEQ": 2.0,
    "EXTRT": "ZANOMALINE",
    "EXDOSE": 54.0,
    "EXDOSU": "mg",
    "EXDOSFRM": "INJECTION",
    "EXDOSFRQ": "QD",
    "EXROUTE": "SUBCUTANEOUS",
    "EXLOT": "SDS580-359",
    "EPOCH": "TREATMENT",
    "EXSTDTC": "2012-12-01",
    "EXENDTC": "2012-12-01",
    "EXSTDY": 2.0,
    "EXENDY": 2.0
  },
  {
    "STUDYID": "CDISCPILOT01",
    "DOMAIN": "EX",
    "USUBJID": "CDISC001",
    "SPDEVID": "DEV0001",
    "EXSEQ": 3.0,
    "EXTRT": "ZANOMALINE",
    "EXDOSE": 54.0,
    "EXDOSU": "mg",
    "EXDOSFRM": "INJECTION",
    "EXDOSFRQ": "QD",
    "EXROUTE": "SUBCUTANEOUS",
    "EXLOT": "SDS580-359",
    "EPOCH": "TREATMENT",
    "EXSTDTC": "2012-12-02",
    "EXENDTC": "2012-12-02",
    "EXSTDY": 3.0,
    "EXENDY": 3.0
  },
  {
    "STUDYID": "CDISCPILOT01",
    "DOMAIN": "EX",
    "USUBJID": "CDISC001",
    "SPDEVID": "DEV0001",
    "EXSEQ": 4.0,
    "EXTRT": "ZANOMALINE",
    "EXDOSE": 54.0,
    "EXDOSU": "mg",
    "EXDOSFRM": "INJECTION",
    "EXDOSFRQ": "QD",
    "EXROUTE": "SUBCUTANEOUS",
    "EXLOT": "SDS580-359",
    "EPOCH": "TREATMENT",
    "EXSTDTC": "2012-12-03",
    "EXENDTC": "2012-12-03",
    "EXSTDY": 4.0,
    "EXENDY": 4.0
  },
  {
    "STUDYID": "CDISCPILOT01",
    "DOMAIN": "EX",
    "USUBJID": "CDISC001",
    "SPDEVID": "DEV0001",
    "EXSEQ": 5.0,
    "EXTRT": "ZANOMALINE",
    "EXDOSE": 54.0,
    "EXDOSU": "mg",
    "EXDOSFRM": "INJECTION",
    "EXDOSFRQ": "QD",
    "EXROUTE": "SUBCUTANEOUS",
    "EXLOT": "SDS580-359",
    "EPOCH": "TREATMENT",
    "EXSTDTC": "2012-12-04",
    "EXENDTC": "2012-12-04",
    "EXSTDY": 5.0,
    "EXENDY": 5.0
  },
  {
    "STUDYID": "CDISCPILOT01",
    "DOMAIN": "EX",
    "USUBJID": "CDISC001",
    "SPDEVID": "DEV0001",
    "EXSEQ": 6.0,
    "EXTRT": "ZANOMALINE",
    "EXDOSE": 54.0,
    "EXDOSU": "mg",
    "EXDOSFRM": "INJECTION",
    "EXDOSFRQ": "QD",
    "EXROUTE": "SUBCUTANEOUS",
    "EXLOT": "SDS580-359",
    "EPOCH": "TREATMENT",
    "EXSTDTC": "2012-12-05",
    "EXENDTC": "2012-12-05",
    "EXSTDY": 6.0,
    "EXENDY": 6.0
  },
  {
    "STUDYID": "CDISCPILOT01",
    "DOMAIN": "EX",
    "USUBJID": "CDISC001",
    "SPDEVID": "DEV0001",
    "EXSEQ": 7.0,
    "EXTRT": "ZANOMALINE",
    "EXDOSE": 54.0,
    "EXDOSU": "mg",
    "EXDOSFRM": "INJECTION",
    "EXDOSFRQ": "QD",
    "EXROUTE": "SUBCUTANEOUS",
    "EXLOT": "SDS580-359",
    "EPOCH": "TREATMENT",
    "EXSTDTC": "2012-12-06",
    "EXENDTC": "2012-12-06",
    "EXSTDY": 7.0,
    "EXENDY": 7.0
  },
  {
    "STUDYID": "CDISCPILOT01",
    "DOMAIN": "EX",
    "USUBJID": "CDISC001",
    "SPDEVID": "DEV0001",
    "EXSEQ": 8.0,
    "EXTRT": "ZANOMALINE",
    "EXDOSE": 54.0,
    "EXDOSU": "mg",
    "EXDOSFRM": "INJECTION",
    "EXDOSFRQ": "QD",
    "EXROUTE": "SUBCUTANEOUS",
    "EXLOT": "SDS580-359",
    "EPOCH": "TREATMENT",
    "EXSTDTC": "2012-12-07",
    "EXENDTC": "2012-12-07",
    "EXSTDY": 8.0,
    "EXENDY": 8.0
  },
  {
    "STUDYID": "CDISCPILOT01",
    "DOMAIN": "EX",
    "USUBJID": "CDISC001",
    "SPDEVID": "DEV0001",
    "EXSEQ": 9.0,
    "EXTRT": "ZANOMALINE",
    "EXDOSE": 54.0,
    "EXDOSU": "mg",
    "EXDOSFRM": "INJECTION",
    "EXDOSFRQ": "QD",
    "EXROUTE": "SUBCUTANEOUS",
    "EXLOT": "SDS580-359",
    "EPOCH": "TREATMENT",
    "EXSTDTC": "2012-12-08",
    "EXENDTC": "2012-12-08",
    "EXSTDY": 9.0,
    "EXENDY": 9.0
  },
  {
    "STUDYID": "CDISCPILOT01",
    "DOMAIN": "EX",
    "USUBJID": "CDISC001",
    "SPDEVID": "DEV0001",
    "EXSEQ": 10.0,
    "EXTRT": "ZANOMALINE",
    "EXDOSE": 54.0,
    "EXDOSU": "mg",
    "EXDOSFRM": "INJECTION",
    "EXDOSFRQ": "QD",
    "EXROUTE": "SUBCUTANEOUS",
    "EXLOT": "SDS580-359",
    "EPOCH": "TREATMENT",
    "EXSTDTC": "2012-12-09",
    "EXENDTC": "2012-12-09",
    "EXSTDY": 10.0,
    "EXENDY": 10.0
  },
  {
    "STUDYID": "CDISCPILOT01",
    "DOMAIN": "EX",
    "USUBJID": "CDISC001",
    "SPDEVID": "DEV0001",
    "EXSEQ": 11.0,
    "EXTRT": "ZANOMALINE",
    "EXDOSE": 54.0,
    "EXDOSU": "mg",
    "EXDOSFRM": "INJECTION",
    "EXDOSFRQ": "QD",
    "EXROUTE": "SUBCUTANEOUS",
    "EXLOT": "SDS580-359",
    "EPOCH": "TREATMENT",
    "EXSTDTC": "2012-12-10",
    "EXENDTC": "2012-12-10",
    "EXSTDY": 11.0,
    "EXENDY": 11.0
  },
  {
    "STUDYID": "CDISCPILOT01",
    "DOMAIN": "EX",
    "USUBJID": "CDISC001",
    "SPDEVID": "DEV0001",
    "EXSEQ": 12.0,
    "EXTRT": "ZANOMALINE",
    "EXDOSE": 54.0,
    "EXDOSU": "mg",
    "EXDOSFRM": "INJECTION",
    "EXDOSFRQ": "QD",
    "EXROUTE": "SUBCUTANEOUS",
    "EXLOT": "SDS580-359",
    "EPOCH": "TREATMENT",
    "EXSTDTC": "2012-12-11",
    "EXENDTC": "2012-12-11",
    "EXSTDY": 12.0,
    "EXENDY": 12.0
  },
  {
    "STUDYID": "CDISCPILOT01",
    "DOMAIN": "EX",
    "USUBJID": "CDISC001",
    "SPDEVID": "DEV0001",
    "EXSEQ": 13.0,
    "EXTRT": "ZANOMALINE",
    "EXDOSE": 54.0,
    "EXDOSU": "mg",
    "EXDOSFRM": "INJECTION",
    "EXDOSFRQ": "QD",
    "EXROUTE": "SUBCUTANEOUS",
    "EXLOT": "SDS580-359",
    "EPOCH": "TREATMENT",
    "EXSTDTC": "2012-12-12",
    "EXENDTC": "2012-12-12",
    "EXSTDY": 13.0,
    "EXENDY": 13.0
  },
  {
    "STUDYID": "CDISCPILOT01",
    "DOMAIN": "EX",
    "USUBJID": "CDISC001",
    "SPDEVID": "DEV0001",
    "EXSEQ": 14.0,
    "EXTRT": "ZANOMALINE",
    "EXDOSE": 54.0,
    "EXDOSU": "mg",
    "EXDOSFRM": "INJECTION",
    "EXDOSFRQ": "QD",
    "EXROUTE": "SUBCUTANEOUS",
    "EXLOT": "SDS580-359",
    "EPOCH": "TREATMENT",
    "EXSTDTC": "2012-12-13",
    "EXENDTC": "2012-12-13",
    "EXSTDY": 14.0,
    "EXENDY": 14.0
  },
  {
    "STUDYID": "CDISCPILOT01",
    "DOMAIN": "EX",
    "USUBJID": "CDISC001",
    "SPDEVID": "DEV0001",
    "EXSEQ": 15.0,
    "EXTRT": "ZANOMALINE",
    "EXDOSE": 54.0,
    "EXDOSU": "mg",
    "EXDOSFRM": "INJECTION",
    "EXDOSFRQ": "QD",
    "EXROUTE": "SUBCUTANEOUS",
    "EXLOT": "SDS580-359",
    "EPOCH": "TREATMENT",
    "EXSTDTC": "2012-12-14",
    "EXENDTC": "2012-12-14",
    "EXSTDY": 15.0,
    "EXENDY": 15.0
  },
  {
    "STUDYID": "CDISCPILOT01",
    "DOMAIN": "EX",
    "USUBJID": "CDISC001",
    "SPDEVID": "DEV0001",
    "EXSEQ": 16.0,
    "EXTRT": "ZANOMALINE",
    "EXDOSE": 54.0,
    "EXDOSU": "mg",
    "EXDOSFRM": "INJECTION",
    "EXDOSFRQ": "QD",
    "EXROUTE": "SUBCUTANEOUS",
    "EXLOT": "SDS580-359",
    "EPOCH": "TREATMENT",
    "EXSTDTC": "2012-12-15",
    "EXENDTC": "2012-12-15",
    "EXSTDY": 16.0,
    "EXENDY": 16.0
  },
  {
    "STUDYID": "CDISCPILOT01",
    "DOMAIN": "EX",
    "USUBJID": "CDISC001",
    "SPDEVID": "DEV0001",
    "EXSEQ": 17.0,
    "EXTRT": "ZANOMALINE",
    "EXDOSE": 54.0,
    "EXDOSU": "mg",
    "EXDOSFRM": "INJECTION",
    "EXDOSFRQ": "QD",
    "EXROUTE": "SUBCUTANEOUS",
    "EXLOT": "SDS580-359",
    "EPOCH": "TREATMENT",
    "EXSTDTC": "2012-12-16",
    "EXENDTC": "2012-12-16",
    "EXSTDY": 17.0,
    "EXENDY": 17.0
  },
  {
    "STUDYID": "CDISCPILOT01",
    "DOMAIN": "EX",
    "USUBJID": "CDISC001",
    "SPDEVID": "DEV0001",
    "EXSEQ": 18.0,
    "EXTRT": "ZANOMALINE",
    "EXDOSE": 54.0,
    "EXDOSU": "mg",
    "EXDOSFRM": "INJECTION",
    "EXDOSFRQ": "QD",
    "EXROUTE": "SUBCUTANEOUS",
    "EXLOT": "SDS580-359",
    "EPOCH": "TREATMENT",
    "EXSTDTC": "2012-12-17",
    "EXENDTC": "2012-12-17",
    "EXSTDY": 18.0,
    "EXENDY": 18.0
  },
  {
    "STUDYID": "CDISCPILOT01",
    "DOMAIN": "EX",
    "USUBJID": "CDISC001",
    "SPDEVID": "DEV0001",
    "EXSEQ": 19.0,
    "EXTRT": "ZANOMALINE",
    "EXDOSE": 54.0,
    "EXDOSU": "mg",
    "EXDOSFRM": "INJECTION",
    "EXDOSFRQ": "QD",
    "EXROUTE": "SUBCUTANEOUS",
    "EXLOT": "SDS580-359",
    "EPOCH": "TREATMENT",
    "EXSTDTC": "2012-12-18",
    "EXENDTC": "2012-12-18",
    "EXSTDY": 19.0,
    "EXENDY": 19.0
  },
  {
    "STUDYID": "CDISCPILOT01",
    "DOMAIN": "EX",
    "USUBJID": "CDISC001",
    "SPDEVID": "DEV0001",
    "EXSEQ": 20.0,
    "EXTRT": "ZANOMALINE",
    "EXDOSE": 54.0,
    "EXDOSU": "mg",
    "EXDOSFRM": "INJECTION",
    "EXDOSFRQ": "QD",
    "EXROUTE": "SUBCUTANEOUS",
    "EXLOT": "SDS580-359",
    "EPOCH": "TREATMENT",
    "EXSTDTC": "2012-12-19",
    "EXENDTC": "2012-12-19",
    "EXSTDY": 20.0,
    "EXENDY": 20.0
  },
  {
    "STUDYID": "CDISCPILOT01",
    "DOMAIN": "EX",
    "USUBJID": "CDISC001",
    "SPDEVID": "DEV0001",
    "EXSEQ": 21.0,
    "EXTRT": "ZANOMALINE",
    "EXDOSE": 54.0,
    "EXDOSU": "mg",
    "EXDOSFRM": "INJECTION",
    "EXDOSFRQ": "QD",
    "EXROUTE": "SUBCUTANEOUS",
    "EXLOT": "SDS580-359",
    "EPOCH": "TREATMENT",
    "EXSTDTC": "2012-12-20",
    "EXENDTC": "2012-12-20",
    "EXSTDY": 21.0,
    "EXENDY": 21.0
  },
  {
    "STUDYID": "CDISCPILOT01",
    "DOMAIN": "EX",
    "USUBJID": "CDISC001",
    "SPDEVID": "DEV0001",
    "EXSEQ": 22.0,
    "EXTRT": "ZANOMALINE",
    "EXDOSE": 54.0,
    "EXDOSU": "mg",
    "EXDOSFRM": "INJECTION",
    "EXDOSFRQ": "QD",
    "EXROUTE": "SUBCUTANEOUS",
    "EXLOT": "SDS580-359",
    "EPOCH": "TREATMENT",
    "EXSTDTC": "2012-12-21",
    "EXENDTC": "2012-12-21",
    "EXSTDY": 22.0,
    "EXENDY": 22.0
  },
  {
    "STUDYID": "CDISCPILOT01",
    "DOMAIN": "EX",
    "USUBJID": "CDISC001",
    "SPDEVID": "DEV0001",
    "EXSEQ": 23.0,
    "EXTRT": "ZANOMALINE",
    "EXDOSE": 54.0,
    "EXDOSU": "mg",
    "EXDOSFRM": "INJECTION",
    "EXDOSFRQ": "QD",
    "EXROUTE": "SUBCUTANEOUS",
    "EXLOT": "SDS580-359",
    "EPOCH": "TREATMENT",
    "EXSTDTC": "2012-12-22",
    "EXENDTC": "2012-12-22",
    "EXSTDY": 23.0,
    "EXENDY": 23.0
  },
  {
    "STUDYID": "CDISCPILOT01",
    "DOMAIN": "EX",
    "USUBJID": "CDISC001",
    "SPDEVID": "DEV0001",
    "EXSEQ": 24.0,
    "EXTRT": "ZANOMALINE",
    "EXDOSE": 54.0,
    "EXDOSU": "mg",
    "EXDOSFRM": "INJECTION",
    "EXDOSFRQ": "QD",
    "EXROUTE": "SUBCUTANEOUS",
    "EXLOT": "SDS580-359",
    "EPOCH": "TREATMENT",
    "EXSTDTC": "2012-12-23",
    "EXENDTC": "2012-12-23",
    "EXSTDY": 24.0,
    "EXENDY": 24.0
  },
  {
    "STUDYID": "CDISCPILOT01",
    "DOMAIN": "EX",
    "USUBJID": "CDISC001",
    "SPDEVID": "DEV0001",
    "EXSEQ": 25.0,
    "EXTRT": "ZANOMALINE",
    "EXDOSE": 54.0,
    "EXDOSU": "mg",
    "EXDOSFRM": "INJECTION",
    "EXDOSFRQ": "QD",
    "EXROUTE": "SUBCUTANEOUS",
    "EXLOT": "SDS580-359",
    "EPOCH": "TREATMENT",
    "EXSTDTC": "2012-12-24",
    "EXENDTC": "2012-12-24",
    "EXSTDY": 25.0,
    "EXENDY": 25.0
  },
  {
    "STUDYID": "CDISCPILOT01",
    "DOMAIN": "EX",
    "USUBJID": "CDISC001",
    "SPDEVID": "DEV0001",
    "EXSEQ": 26.0,
    "EXTRT": "ZANOMALINE",
    "EXDOSE": 54.0,
    "EXDOSU": "mg",
    "EXDOSFRM": "INJECTION",
    "EXDOSFRQ": "QD",
    "EXROUTE": "SUBCUTANEOUS",
    "EXLOT": "SDS580-359",
    "EPOCH": "TREATMENT",
    "EXSTDTC": "2012-12-25",
    "EXENDTC": "2012-12-25",
    "EXSTDY": 26.0,
    "EXENDY": 26.0
  },
  {
    "STUDYID": "CDISCPILOT01",
    "DOMAIN": "EX",
    "USUBJID": "CDISC001",
    "SPDEVID": "DEV0001",
    "EXSEQ": 27.0,
    "EXTRT": "ZANOMALINE",
    "EXDOSE": 54.0,
    "EXDOSU": "mg",
    "EXDOSFRM": "INJECTION",
    "EXDOSFRQ": "QD",
    "EXROUTE": "SUBCUTANEOUS",
    "EXLOT": "SDS580-359",
    "EPOCH": "TREATMENT",
    "EXSTDTC": "2012-12-26",
    "EXENDTC": "2012-12-26",
    "EXSTDY": 27.0,
    "EXENDY": 27.0
  },
  {
    "STUDYID": "CDISCPILOT01",
    "DOMAIN": "EX",
    "USUBJID": "CDISC001",
    "SPDEVID": "DEV0001",
    "EXSEQ": 28.0,
    "EXTRT": "ZANOMALINE",
    "EXDOSE": 54.0,
    "EXDOSU": "mg",
    "EXDOSFRM": "INJECTION",
    "EXDOSFRQ": "QD",
    "EXROUTE": "SUBCUTANEOUS",
    "EXLOT": "SDS580-359",
    "EPOCH": "TREATMENT",
    "EXSTDTC": "2012-12-27",
    "EXENDTC": "2012-12-27",
    "EXSTDY": 28.0,
    "EXENDY": 28.0
  },
  {
    "STUDYID": "CDISCPILOT01",
    "DOMAIN": "EX",
    "USUBJID": "CDISC001",
    "SPDEVID": "DEV0001",
    "EXSEQ": 29.0,
    "EXTRT": "ZANOMALINE",
    "EXDOSE": 54.0,
    "EXDOSU": "mg",
    "EXDOSFRM": "INJECTION",
    "EXDOSFRQ": "QD",
    "EXROUTE": "SUBCUTANEOUS",
    "EXLOT": "SDS580-359",
    "EPOCH": "TREATMENT",
    "EXSTDTC": "2012-12-28",
    "EXENDTC": "2012-12-28",
    "EXSTDY": 29.0,
    "EXENDY": 29.0
  },
  {
    "STUDYID": "CDISCPILOT01",
    "DOMAIN": "EX",
    "USUBJID": "CDISC001",
    "SPDEVID": "DEV0001",
    "EXSEQ": 30.0,
    "EXTRT": "ZANOMALINE",
    "EXDOSE": 54.0,
    "EXDOSU": "mg",
    "EXDOSFRM": "INJECTION",
    "EXDOSFRQ": "QD",
    "EXROUTE": "SUBCUTANEOUS",
    "EXLOT": "SDS580-359",
    "EPOCH": "TREATMENT",
    "EXSTDTC": "2012-12-29",
    "EXENDTC": "2012-12-29",
    "EXSTDY": 30.0,
    "EXENDY": 30.0
  },
  {
    "STUDYID": "CDISCPILOT01",
    "DOMAIN": "EX",
    "USUBJID": "CDISC001",
    "SPDEVID": "DEV0001",
    "EXSEQ": 31.0,
    "EXTRT": "ZANOMALINE",
    "EXDOSE": 54.0,
    "EXDOSU": "mg",
    "EXDOSFRM": "INJECTION",
    "EXDOSFRQ": "QD",
    "EXROUTE": "SUBCUTANEOUS",
    "EXLOT": "SDS580-359",
    "EPOCH": "TREATMENT",
    "EXSTDTC": "2012-12-30",
    "EXENDTC": "2012-12-30",
    "EXSTDY": 31.0,
    "EXENDY": 31.0
  },
  {
    "STUDYID": "CDISCPILOT01",
    "DOMAIN": "EX",
    "USUBJID": "CDISC001",
    "SPDEVID": "DEV0001",
    "EXSEQ": 32.0,
    "EXTRT": "ZANOMALINE",
    "EXDOSE": 54.0,
    "EXDOSU": "mg",
    "EXDOSFRM": "INJECTION",
    "EXDOSFRQ": "QD",
    "EXROUTE": "SUBCUTANEOUS",
    "EXLOT": "SDS580-359",
    "EPOCH": "TREATMENT",
    "EXSTDTC": "2012-12-31",
    "EXENDTC": "2012-12-31",
    "EXSTDY": 32.0,
    "EXENDY": 32.0
  },
  {
    "STUDYID": "CDISCPILOT01",
    "DOMAIN": "EX",
    "USUBJID": "CDISC001",
    "SPDEVID": "DEV0001",
    "EXSEQ": 33.0,
    "EXTRT": "ZANOMALINE",
    "EXDOSE": 54.0,
    "EXDOSU": "mg",
    "EXDOSFRM": "INJECTION",
    "EXDOSFRQ": "QD",
    "EXROUTE": "SUBCUTANEOUS",
    "EXLOT": "SDS580-359",
    "EPOCH": "TREATMENT",
    "EXSTDTC": "2013-01-01",
    "EXENDTC": "2013-01-01",
    "EXSTDY": 33.0,
    "EXENDY": 33.0
  },
  {
    "STUDYID": "CDISCPILOT01",
    "DOMAIN": "EX",
    "USUBJID": "CDISC001",
    "SPDEVID": "DEV0001",
    "EXSEQ": 34.0,
    "EXTRT": "ZANOMALINE",
    "EXDOSE": 54.0,
    "EXDOSU": "mg",
    "EXDOSFRM": "INJECTION",
    "EXDOSFRQ": "QD",
    "EXROUTE": "SUBCUTANEOUS",
    "EXLOT": "SDS580-359",
    "EPOCH": "TREATMENT",
    "EXSTDTC": "2013-01-02",
    "EXENDTC": "2013-01-02",
    "EXSTDY": 34.0,
    "EXENDY": 34.0
  },
  {
    "STUDYID": "CDISCPILOT01",
    "DOMAIN": "EX",
    "USUBJID": "CDISC001",
    "SPDEVID": "DEV0001",
    "EXSEQ": 35.0,
    "EXTRT": "ZANOMALINE",
    "EXDOSE": 54.0,
    "EXDOSU": "mg",
    "EXDOSFRM": "INJECTION",
    "EXDOSFRQ": "QD",
    "EXROUTE": "SUBCUTANEOUS",
    "EXLOT": "SDS580-359",
    "EPOCH": "TREATMENT",
    "EXSTDTC": "2013-01-03",
    "EXENDTC": "2013-01-03",
    "EXSTDY": 35.0,
    "EXENDY": 35.0
  },
  {
    "STUDYID": "CDISCPILOT01",
    "DOMAIN": "EX",
    "USUBJID": "CDISC001",
    "SPDEVID": "DEV0001",
    "EXSEQ": 36.0,
    "EXTRT": "ZANOMALINE",
    "EXDOSE": 54.0,
    "EXDOSU": "mg",
    "EXDOSFRM": "INJECTION",
    "EXDOSFRQ": "QD",
    "EXROUTE": "SUBCUTANEOUS",
    "EXLOT": "SDS580-359",
    "EPOCH": "TREATMENT",
    "EXSTDTC": "2013-01-04",
    "EXENDTC": "2013-01-04",
    "EXSTDY": 36.0,
    "EXENDY": 36.0
  },
  {
    "STUDYID": "CDISCPILOT01",
    "DOMAIN": "EX",
    "USUBJID": "CDISC001",
    "SPDEVID": "DEV0001",
    "EXSEQ": 37.0,
    "EXTRT": "ZANOMALINE",
    "EXDOSE": 54.0,
    "EXDOSU": "mg",
    "EXDOSFRM": "INJECTION",
    "EXDOSFRQ": "QD",
    "EXROUTE": "SUBCUTANEOUS",
    "EXLOT": "SDS580-359",
    "EPOCH": "TREATMENT",
    "EXSTDTC": "2013-01-05",
    "EXENDTC": "2013-01-05",
    "EXSTDY": 37.0,
    "EXENDY": 37.0
  },
  {
    "STUDYID": "CDISCPILOT01",
    "DOMAIN": "EX",
    "USUBJID": "CDISC001",
    "SPDEVID": "DEV0001",
    "EXSEQ": 38.0,
    "EXTRT": "ZANOMALINE",
    "EXDOSE": 54.0,
    "EXDOSU": "mg",
    "EXDOSFRM": "INJECTION",
    "EXDOSFRQ": "QD",
    "EXROUTE": "SUBCUTANEOUS",
    "EXLOT": "SDS580-359",
    "EPOCH": "TREATMENT",
    "EXSTDTC": "2013-01-06",
    "EXENDTC": "2013-01-06",
    "EXSTDY": 38.0,
    "EXENDY": 38.0
  },
  {
    "STUDYID": "CDISCPILOT01",
    "DOMAIN": "EX",
    "USUBJID": "CDISC001",
    "SPDEVID": "DEV0001",
    "EXSEQ": 39.0,
    "EXTRT": "ZANOMALINE",
    "EXDOSE": 54.0,
    "EXDOSU": "mg",
    "EXDOSFRM": "INJECTION",
    "EXDOSFRQ": "QD",
    "EXROUTE": "SUBCUTANEOUS",
    "EXLOT": "SDS580-359",
    "EPOCH": "TREATMENT",
    "EXSTDTC": "2013-01-07",
    "EXENDTC": "2013-01-07",
    "EXSTDY": 39.0,
    "EXENDY": 39.0
  },
  {
    "STUDYID": "CDISCPILOT01",
    "DOMAIN": "EX",
    "USUBJID": "CDISC001",
    "SPDEVID": "DEV0001",
    "EXSEQ": 40.0,
    "EXTRT": "ZANOMALINE",
    "EXDOSE": 54.0,
    "EXDOSU": "mg",
    "EXDOSFRM": "INJECTION",
    "EXDOSFRQ": "QD",
    "EXROUTE": "SUBCUTANEOUS",
    "EXLOT": "SDS580-359",
    "EPOCH": "TREATMENT",
    "EXSTDTC": "2013-01-08",
    "EXENDTC": "2013-01-08",
    "EXSTDY": 40.0,
    "EXENDY": 40.0
  },
  {
    "STUDYID": "CDISCPILOT01",
    "DOMAIN": "EX",
    "USUBJID": "CDISC001",
    "SPDEVID": "DEV0001",
    "EXSEQ": 41.0,
    "EXTRT": "ZANOMALINE",
    "EXDOSE": 54.0,
    "EXDOSU": "mg",
    "EXDOSFRM": "INJECTION",
    "EXDOSFRQ": "QD",
    "EXROUTE": "SUBCUTANEOUS",
    "EXLOT": "SDS580-359",
    "EPOCH": "TREATMENT",
    "EXSTDTC": "2013-01-09",
    "EXENDTC": "2013-01-09",
    "EXSTDY": 41.0,
    "EXENDY": 41.0
  },
  {
    "STUDYID": "CDISCPILOT01",
    "DOMAIN": "EX",
    "USUBJID": "CDISC001",
    "SPDEVID": "DEV0001",
    "EXSEQ": 42.0,
    "EXTRT": "ZANOMALINE",
    "EXDOSE": 54.0,
    "EXDOSU": "mg",
    "EXDOSFRM": "INJECTION",
    "EXDOSFRQ": "QD",
    "EXROUTE": "SUBCUTANEOUS",
    "EXLOT": "SDS580-359",
    "EPOCH": "TREATMENT",
    "EXSTDTC": "2013-01-10",
    "EXENDTC": "2013-01-10",
    "EXSTDY": 42.0,
    "EXENDY": 42.0
  },
  {
    "STUDYID": "CDISCPILOT01",
    "DOMAIN": "EX",
    "USUBJID": "CDISC001",
    "SPDEVID": "DEV0001",
    "EXSEQ": 43.0,
    "EXTRT": "ZANOMALINE",
    "EXDOSE": 54.0,
    "EXDOSU": "mg",
    "EXDOSFRM": "INJECTION",
    "EXDOSFRQ": "QD",
    "EXROUTE": "SUBCUTANEOUS",
    "EXLOT": "SDS580-359",
    "EPOCH": "TREATMENT",
    "EXSTDTC": "2013-01-11",
    "EXENDTC": "2013-01-11",
    "EXSTDY": 43.0,
    "EXENDY": 43.0
  },
  {
    "STUDYID": "CDISCPILOT01",
    "DOMAIN": "EX",
    "USUBJID": "CDISC001",
    "SPDEVID": "DEV0001",
    "EXSEQ": 44.0,
    "EXTRT": "ZANOMALINE",
    "EXDOSE": 54.0,
    "EXDOSU": "mg",
    "EXDOSFRM": "INJECTION",
    "EXDOSFRQ": "QD",
    "EXROUTE": "SUBCUTANEOUS",
    "EXLOT": "SDS580-359",
    "EPOCH": "TREATMENT",
    "EXSTDTC": "2013-01-12",
    "EXENDTC": "2013-01-12",
    "EXSTDY": 44.0,
    "EXENDY": 44.0
  },
  {
    "STUDYID": "CDISCPILOT01",
    "DOMAIN": "EX",
    "USUBJID": "CDISC001",
    "SPDEVID": "DEV0001",
    "EXSEQ": 45.0,
    "EXTRT": "ZANOMALINE",
    "EXDOSE": 54.0,
    "EXDOSU": "mg",
    "EXDOSFRM": "INJECTION",
    "EXDOSFRQ": "QD",
    "EXROUTE": "SUBCUTANEOUS",
    "EXLOT": "SDS580-359",
    "EPOCH": "TREATMENT",
    "EXSTDTC": "2013-01-13",
    "EXENDTC": "2013-01-13",
    "EXSTDY": 45.0,
    "EXENDY": 45.0
  },
  {
    "STUDYID": "CDISCPILOT01",
    "DOMAIN": "EX",
    "USUBJID": "CDISC001",
    "SPDEVID": "DEV0001",
    "EXSEQ": 46.0,
    "EXTRT": "ZANOMALINE",
    "EXDOSE": 54.0,
    "EXDOSU": "mg",
    "EXDOSFRM": "INJECTION",
    "EXDOSFRQ": "QD",
    "EXROUTE": "SUBCUTANEOUS",
    "EXLOT": "SDS580-359",
    "EPOCH": "TREATMENT",
    "EXSTDTC": "2013-01-14",
    "EXENDTC": "2013-01-14",
    "EXSTDY": 46.0,
    "EXENDY": 46.0
  },
  {
    "STUDYID": "CDISCPILOT01",
    "DOMAIN": "EX",
    "USUBJID": "CDISC001",
    "SPDEVID": "DEV0001",
    "EXSEQ": 47.0,
    "EXTRT": "ZANOMALINE",
    "EXDOSE": 54.0,
    "EXDOSU": "mg",
    "EXDOSFRM": "INJECTION",
    "EXDOSFRQ": "QD",
    "EXROUTE": "SUBCUTANEOUS",
    "EXLOT": "SDS580-359",
    "EPOCH": "TREATMENT",
    "EXSTDTC": "2013-01-15",
    "EXENDTC": "2013-01-15",
    "EXSTDY": 47.0,
    "EXENDY": 47.0
  },
  {
    "STUDYID": "CDISCPILOT01",
    "DOMAIN": "EX",
    "USUBJID": "CDISC001",
    "SPDEVID": "DEV0001",
    "EXSEQ": 48.0,
    "EXTRT": "ZANOMALINE",
    "EXDOSE": 54.0,
    "EXDOSU": "mg",
    "EXDOSFRM": "INJECTION",
    "EXDOSFRQ": "QD",
    "EXROUTE": "SUBCUTANEOUS",
    "EXLOT": "SDS580-359",
    "EPOCH": "TREATMENT",
    "EXSTDTC": "2013-01-16",
    "EXENDTC": "2013-01-16",
    "EXSTDY": 48.0,
    "EXENDY": 48.0
  },
  {
    "STUDYID": "CDISCPILOT01",
    "DOMAIN": "EX",
    "USUBJID": "CDISC001",
    "SPDEVID": "DEV0001",
    "EXSEQ": 49.0,
    "EXTRT": "ZANOMALINE",
    "EXDOSE": 54.0,
    "EXDOSU": "mg",
    "EXDOSFRM": "INJECTION",
    "EXDOSFRQ": "QD",
    "EXROUTE": "SUBCUTANEOUS",
    "EXLOT": "SDS580-359",
    "EPOCH": "TREATMENT",
    "EXSTDTC": "2013-01-17",
    "EXENDTC": "2013-01-17",
    "EXSTDY": 49.0,
    "EXENDY": 49.0
  },
  {
    "STUDYID": "CDISCPILOT01",
    "DOMAIN": "EX",
    "USUBJID": "CDISC001",
    "SPDEVID": "DEV0001",
    "EXSEQ": 50.0,
    "EXTRT": "ZANOMALINE",
    "EXDOSE": 54.0,
    "EXDOSU": "mg",
    "EXDOSFRM": "INJECTION",
    "EXDOSFRQ": "QD",
    "EXROUTE": "SUBCUTANEOUS",
    "EXLOT": "SDS580-359",
    "EPOCH": "TREATMENT",
    "EXSTDTC": "2013-01-18",
    "EXENDTC": "2013-01-18",
    "EXSTDY": 50.0,
    "EXENDY": 50.0
  },
  {
    "STUDYID": "CDISCPILOT01",
    "DOMAIN": "EX",
    "USUBJID": "CDISC001",
    "SPDEVID": "DEV0001",
    "EXSEQ": 51.0,
    "EXTRT": "ZANOMALINE",
    "EXDOSE": 54.0,
    "EXDOSU": "mg",
    "EXDOSFRM": "INJECTION",
    "EXDOSFRQ": "QD",
    "EXROUTE": "SUBCUTANEOUS",
    "EXLOT": "SDS580-359",
    "EPOCH": "TREATMENT",
    "EXSTDTC": "2013-01-19",
    "EXENDTC": "2013-01-19",
    "EXSTDY": 51.0,
    "EXENDY": 51.0
  },
  {
    "STUDYID": "CDISCPILOT01",
    "DOMAIN": "EX",
    "USUBJID": "CDISC001",
    "SPDEVID": "DEV0001",
    "EXSEQ": 52.0,
    "EXTRT": "ZANOMALINE",
    "EXDOSE": 54.0,
    "EXDOSU": "mg",
    "EXDOSFRM": "INJECTION",
    "EXDOSFRQ": "QD",
    "EXROUTE": "SUBCUTANEOUS",
    "EXLOT": "SDS580-359",
    "EPOCH": "TREATMENT",
    "EXSTDTC": "2013-01-20",
    "EXENDTC": "2013-01-20",
    "EXSTDY": 52.0,
    "EXENDY": 52.0
  },
  {
    "STUDYID": "CDISCPILOT01",
    "DOMAIN": "EX",
    "USUBJID": "CDISC001",
    "SPDEVID": "DEV0001",
    "EXSEQ": 53.0,
    "EXTRT": "ZANOMALINE",
    "EXDOSE": 54.0,
    "EXDOSU": "mg",
    "EXDOSFRM": "INJECTION",
    "EXDOSFRQ": "QD",
    "EXROUTE": "SUBCUTANEOUS",
    "EXLOT": "SDS580-359",
    "EPOCH": "TREATMENT",
    "EXSTDTC": "2013-01-21",
    "EXENDTC": "2013-01-21",
    "EXSTDY": 53.0,
    "EXENDY": 53.0
  },
  {
    "STUDYID": "CDISCPILOT01",
    "DOMAIN": "EX",
    "USUBJID": "CDISC001",
    "SPDEVID": "DEV0001",
    "EXSEQ": 54.0,
    "EXTRT": "ZANOMALINE",
    "EXDOSE": 54.0,
    "EXDOSU": "mg",
    "EXDOSFRM": "INJECTION",
    "EXDOSFRQ": "QD",
    "EXROUTE": "SUBCUTANEOUS",
    "EXLOT": "SDS580-359",
    "EPOCH": "TREATMENT",
    "EXSTDTC": "2013-01-22",
    "EXENDTC": "2013-01-22",
    "EXSTDY": 54.0,
    "EXENDY": 54.0
  },
  {
    "STUDYID": "CDISCPILOT01",
    "DOMAIN": "EX",
    "USUBJID": "CDISC001",
    "SPDEVID": "DEV0001",
    "EXSEQ": 55.0,
    "EXTRT": "ZANOMALINE",
    "EXDOSE": 54.0,
    "EXDOSU": "mg",
    "EXDOSFRM": "INJECTION",
    "EXDOSFRQ": "QD",
    "EXROUTE": "SUBCUTANEOUS",
    "EXLOT": "SDS580-359",
    "EPOCH": "TREATMENT",
    "EXSTDTC": "2013-01-23",
    "EXENDTC": "2013-01-23",
    "EXSTDY": 55.0,
    "EXENDY": 55.0
  },
  {
    "STUDYID": "CDISCPILOT01",
    "DOMAIN": "EX",
    "USUBJID": "CDISC002",
    "SPDEVID": "DEV0002",
    "EXSEQ": 1.0,
    "EXTRT": "ZANOMALINE",
    "EXDOSE": 54.0,
    "EXDOSU": "mg",
    "EXDOSFRM": "INJECTION",
    "EXDOSFRQ": "QD",
    "EXROUTE": "SUBCUTANEOUS",
    "EXLOT": "SDS580-359",
    "EPOCH": "TREATMENT",
    "EXSTDTC": "2012-11-15",
    "EXENDTC": "2012-11-15",
    "EXSTDY": 1.0,
    "EXENDY": 1.0
  },
  {
    "STUDYID": "CDISCPILOT01",
    "DOMAIN": "EX",
    "USUBJID": "CDISC002",
    "SPDEVID": "DEV0002",
    "EXSEQ": 2.0,
    "EXTRT": "ZANOMALINE",
    "EXDOSE": 54.0,
    "EXDOSU": "mg",
    "EXDOSFRM": "INJECTION",
    "EXDOSFRQ": "QD",
    "EXROUTE": "SUBCUTANEOUS",
    "EXLOT": "SDS580-359",
    "EPOCH": "TREATMENT",
    "EXSTDTC": "2012-11-16",
    "EXENDTC": "2012-11-16",
    "EXSTDY": 2.0,
    "EXENDY": 2.0
  },
  {
    "STUDYID": "CDISCPILOT01",
    "DOMAIN": "EX",
    "USUBJID": "CDISC002",
    "SPDEVID": "DEV0002",
    "EXSEQ": 3.0,
    "EXTRT": "ZANOMALINE",
    "EXDOSE": 54.0,
    "EXDOSU": "mg",
    "EXDOSFRM": "INJECTION",
    "EXDOSFRQ": "QD",
    "EXROUTE": "SUBCUTANEOUS",
    "EXLOT": "SDS580-359",
    "EPOCH": "TREATMENT",
    "EXSTDTC": "2012-11-17",
    "EXENDTC": "2012-11-17",
    "EXSTDY": 3.0,
    "EXENDY": 3.0
  },
  {
    "STUDYID": "CDISCPILOT01",
    "DOMAIN": "EX",
    "USUBJID": "CDISC002",
    "SPDEVID": "DEV0002",
    "EXSEQ": 4.0,
    "EXTRT": "ZANOMALINE",
    "EXDOSE": 54.0,
    "EXDOSU": "mg",
    "EXDOSFRM": "INJECTION",
    "EXDOSFRQ": "QD",
    "EXROUTE": "SUBCUTANEOUS",
    "EXLOT": "SDS580-359",
    "EPOCH": "TREATMENT",
    "EXSTDTC": "2012-11-18",
    "EXENDTC": "2012-11-18",
    "EXSTDY": 4.0,
    "EXENDY": 4.0
  },
  {
    "STUDYID": "CDISCPILOT01",
    "DOMAIN": "EX",
    "USUBJID": "CDISC002",
    "SPDEVID": "DEV0002",
    "EXSEQ": 5.0,
    "EXTRT": "ZANOMALINE",
    "EXDOSE": 54.0,
    "EXDOSU": "mg",
    "EXDOSFRM": "INJECTION",
    "EXDOSFRQ": "QD",
    "EXROUTE": "SUBCUTANEOUS",
    "EXLOT": "SDS580-359",
    "EPOCH": "TREATMENT",
    "EXSTDTC": "2012-11-19",
    "EXENDTC": "2012-11-19",
    "EXSTDY": 5.0,
    "EXENDY": 5.0
  },
  {
    "STUDYID": "CDISCPILOT01",
    "DOMAIN": "EX",
    "USUBJID": "CDISC002",
    "SPDEVID": "DEV0002",
    "EXSEQ": 6.0,
    "EXTRT": "ZANOMALINE",
    "EXDOSE": 54.0,
    "EXDOSU": "mg",
    "EXDOSFRM": "INJECTION",
    "EXDOSFRQ": "QD",
    "EXROUTE": "SUBCUTANEOUS",
    "EXLOT": "SDS580-359",
    "EPOCH": "TREATMENT",
    "EXSTDTC": "2012-11-20",
    "EXENDTC": "2012-11-20",
    "EXSTDY": 6.0,
    "EXENDY": 6.0
  },
  {
    "STUDYID": "CDISCPILOT01",
    "DOMAIN": "EX",
    "USUBJID": "CDISC002",
    "SPDEVID": "DEV0002",
    "EXSEQ": 7.0,
    "EXTRT": "ZANOMALINE",
    "EXDOSE": 54.0,
    "EXDOSU": "mg",
    "EXDOSFRM": "INJECTION",
    "EXDOSFRQ": "QD",
    "EXROUTE": "SUBCUTANEOUS",
    "EXLOT": "SDS580-359",
    "EPOCH": "TREATMENT",
    "EXSTDTC": "2012-11-21",
    "EXENDTC": "2012-11-21",
    "EXSTDY": 7.0,
    "EXENDY": 7.0
  },
  {
    "STUDYID": "CDISCPILOT01",
    "DOMAIN": "EX",
    "USUBJID": "CDISC002",
    "SPDEVID": "DEV0002",
    "EXSEQ": 8.0,
    "EXTRT": "ZANOMALINE",
    "EXDOSE": 54.0,
    "EXDOSU": "mg",
    "EXDOSFRM": "INJECTION",
    "EXDOSFRQ": "QD",
    "EXROUTE": "SUBCUTANEOUS",
    "EXLOT": "SDS580-359",
    "EPOCH": "TREATMENT",
    "EXSTDTC": "2012-11-22",
    "EXENDTC": "2012-11-22",
    "EXSTDY": 8.0,
    "EXENDY": 8.0
  },
  {
    "STUDYID": "CDISCPILOT01",
    "DOMAIN": "EX",
    "USUBJID": "CDISC002",
    "SPDEVID": "DEV0002",
    "EXSEQ": 9.0,
    "EXTRT": "ZANOMALINE",
    "EXDOSE": 54.0,
    "EXDOSU": "mg",
    "EXDOSFRM": "INJECTION",
    "EXDOSFRQ": "QD",
    "EXROUTE": "SUBCUTANEOUS",
    "EXLOT": "SDS580-359",
    "EPOCH": "TREATMENT",
    "EXSTDTC": "2012-11-23",
    "EXENDTC": "2012-11-23",
    "EXSTDY": 9.0,
    "EXENDY": 9.0
  },
  {
    "STUDYID": "CDISCPILOT01",
    "DOMAIN": "EX",
    "USUBJID": "CDISC002",
    "SPDEVID": "DEV0002",
    "EXSEQ": 10.0,
    "EXTRT": "ZANOMALINE",
    "EXDOSE": 54.0,
    "EXDOSU": "mg",
    "EXDOSFRM": "INJECTION",
    "EXDOSFRQ": "QD",
    "EXROUTE": "SUBCUTANEOUS",
    "EXLOT": "SDS580-359",
    "EPOCH": "TREATMENT",
    "EXSTDTC": "2012-11-24",
    "EXENDTC": "2012-11-24",
    "EXSTDY": 10.0,
    "EXENDY": 10.0
  },
  {
    "STUDYID": "CDISCPILOT01",
    "DOMAIN": "EX",
    "USUBJID": "CDISC002",
    "SPDEVID": "DEV0002",
    "EXSEQ": 11.0,
    "EXTRT": "ZANOMALINE",
    "EXDOSE": 54.0,
    "EXDOSU": "mg",
    "EXDOSFRM": "INJECTION",
    "EXDOSFRQ": "QD",
    "EXROUTE": "SUBCUTANEOUS",
    "EXLOT": "SDS580-359",
    "EPOCH": "TREATMENT",
    "EXSTDTC": "2012-11-25",
    "EXENDTC": "2012-11-25",
    "EXSTDY": 11.0,
    "EXENDY": 11.0
  },
  {
    "STUDYID": "CDISCPILOT01",
    "DOMAIN": "EX",
    "USUBJID": "CDISC002",
    "SPDEVID": "DEV0002",
    "EXSEQ": 12.0,
    "EXTRT": "ZANOMALINE",
    "EXDOSE": 54.0,
    "EXDOSU": "mg",
    "EXDOSFRM": "INJECTION",
    "EXDOSFRQ": "QD",
    "EXROUTE": "SUBCUTANEOUS",
    "EXLOT": "SDS580-359",
    "EPOCH": "TREATMENT",
    "EXSTDTC": "2012-11-26",
    "EXENDTC": "2012-11-26",
    "EXSTDY": 12.0,
    "EXENDY": 12.0
  },
  {
    "STUDYID": "CDISCPILOT01",
    "DOMAIN": "EX",
    "USUBJID": "CDISC002",
    "SPDEVID": "DEV0002",
    "EXSEQ": 13.0,
    "EXTRT": "ZANOMALINE",
    "EXDOSE": 54.0,
    "EXDOSU": "mg",
    "EXDOSFRM": "INJECTION",
    "EXDOSFRQ": "QD",
    "EXROUTE": "SUBCUTANEOUS",
    "EXLOT": "SDS580-359",
    "EPOCH": "TREATMENT",
    "EXSTDTC": "2012-11-27",
    "EXENDTC": "2012-11-27",
    "EXSTDY": 13.0,
    "EXENDY": 13.0
  },
  {
    "STUDYID": "CDISCPILOT01",
    "DOMAIN": "EX",
    "USUBJID": "CDISC002",
    "SPDEVID": "DEV0002",
    "EXSEQ": 14.0,
    "EXTRT": "ZANOMALINE",
    "EXDOSE": 54.0,
    "EXDOSU": "mg",
    "EXDOSFRM": "INJECTION",
    "EXDOSFRQ": "QD",
    "EXROUTE": "SUBCUTANEOUS",
    "EXLOT": "SDS580-359",
    "EPOCH": "TREATMENT",
    "EXSTDTC": "2012-11-28",
    "EXENDTC": "2012-11-28",
    "EXSTDY": 14.0,
    "EXENDY": 14.0
  },
  {
    "STUDYID": "CDISCPILOT01",
    "DOMAIN": "EX",
    "USUBJID": "CDISC002",
    "SPDEVID": "DEV0002",
    "EXSEQ": 15.0,
    "EXTRT": "ZANOMALINE",
    "EXDOSE": 54.0,
    "EXDOSU": "mg",
    "EXDOSFRM": "INJECTION",
    "EXDOSFRQ": "QD",
    "EXROUTE": "SUBCUTANEOUS",
    "EXLOT": "SDS580-359",
    "EPOCH": "TREATMENT",
    "EXSTDTC": "2012-11-29",
    "EXENDTC": "2012-11-29",
    "EXSTDY": 15.0,
    "EXENDY": 15.0
  },
  {
    "STUDYID": "CDISCPILOT01",
    "DOMAIN": "EX",
    "USUBJID": "CDISC002",
    "SPDEVID": "DEV0002",
    "EXSEQ": 16.0,
    "EXTRT": "ZANOMALINE",
    "EXDOSE": 54.0,
    "EXDOSU": "mg",
    "EXDOSFRM": "INJECTION",
    "EXDOSFRQ": "QD",
    "EXROUTE": "SUBCUTANEOUS",
    "EXLOT": "SDS580-359",
    "EPOCH": "TREATMENT",
    "EXSTDTC": "2012-11-30",
    "EXENDTC": "2012-11-30",
    "EXSTDY": 16.0,
    "EXENDY": 16.0
  },
  {
    "STUDYID": "CDISCPILOT01",
    "DOMAIN": "EX",
    "USUBJID": "CDISC002",
    "SPDEVID": "DEV0002",
    "EXSEQ": 17.0,
    "EXTRT": "ZANOMALINE",
    "EXDOSE": 54.0,
    "EXDOSU": "mg",
    "EXDOSFRM": "INJECTION",
    "EXDOSFRQ": "QD",
    "EXROUTE": "SUBCUTANEOUS",
    "EXLOT": "SDS580-359",
    "EPOCH": "TREATMENT",
    "EXSTDTC": "2012-12-01",
    "EXENDTC": "2012-12-01",
    "EXSTDY": 17.0,
    "EXENDY": 17.0
  },
  {
    "STUDYID": "CDISCPILOT01",
    "DOMAIN": "EX",
    "USUBJID": "CDISC002",
    "SPDEVID": "DEV0002",
    "EXSEQ": 18.0,
    "EXTRT": "ZANOMALINE",
    "EXDOSE": 54.0,
    "EXDOSU": "mg",
    "EXDOSFRM": "INJECTION",
    "EXDOSFRQ": "QD",
    "EXROUTE": "SUBCUTANEOUS",
    "EXLOT": "SDS580-359",
    "EPOCH": "TREATMENT",
    "EXSTDTC": "2012-12-02",
    "EXENDTC": "2012-12-02",
    "EXSTDY": 18.0,
    "EXENDY": 18.0
  },
  {
    "STUDYID": "CDISCPILOT01",
    "DOMAIN": "EX",
    "USUBJID": "CDISC002",
    "SPDEVID": "DEV0002",
    "EXSEQ": 19.0,
    "EXTRT": "ZANOMALINE",
    "EXDOSE": 54.0,
    "EXDOSU": "mg",
    "EXDOSFRM": "INJECTION",
    "EXDOSFRQ": "QD",
    "EXROUTE": "SUBCUTANEOUS",
    "EXLOT": "SDS580-359",
    "EPOCH": "TREATMENT",
    "EXSTDTC": "2012-12-03",
    "EXENDTC": "2012-12-03",
    "EXSTDY": 19.0,
    "EXENDY": 19.0
  },
  {
    "STUDYID": "CDISCPILOT01",
    "DOMAIN": "EX",
    "USUBJID": "CDISC002",
    "SPDEVID": "DEV0002",
    "EXSEQ": 20.0,
    "EXTRT": "ZANOMALINE",
    "EXDOSE": 54.0,
    "EXDOSU": "mg",
    "EXDOSFRM": "INJECTION",
    "EXDOSFRQ": "QD",
    "EXROUTE": "SUBCUTANEOUS",
    "EXLOT": "SDS580-359",
    "EPOCH": "TREATMENT",
    "EXSTDTC": "2012-12-04",
    "EXENDTC": "2012-12-04",
    "EXSTDY": 20.0,
    "EXENDY": 20.0
  },
  {
    "STUDYID": "CDISCPILOT01",
    "DOMAIN": "EX",
    "USUBJID": "CDISC002",
    "SPDEVID": "DEV0002",
    "EXSEQ": 21.0,
    "EXTRT": "ZANOMALINE",
    "EXDOSE": 54.0,
    "EXDOSU": "mg",
    "EXDOSFRM": "INJECTION",
    "EXDOSFRQ": "QD",
    "EXROUTE": "SUBCUTANEOUS",
    "EXLOT": "SDS580-359",
    "EPOCH": "TREATMENT",
    "EXSTDTC": "2012-12-05",
    "EXENDTC": "2012-12-05",
    "EXSTDY": 21.0,
    "EXENDY": 21.0
  },
  {
    "STUDYID": "CDISCPILOT01",
    "DOMAIN": "EX",
    "USUBJID": "CDISC002",
    "SPDEVID": "DEV0002",
    "EXSEQ": 22.0,
    "EXTRT": "ZANOMALINE",
    "EXDOSE": 54.0,
    "EXDOSU": "mg",
    "EXDOSFRM": "INJECTION",
    "EXDOSFRQ": "QD",
    "EXROUTE": "SUBCUTANEOUS",
    "EXLOT": "SDS580-359",
    "EPOCH": "TREATMENT",
    "EXSTDTC": "2012-12-06",
    "EXENDTC": "2012-12-06",
    "EXSTDY": 22.0,
    "EXENDY": 22.0
  },
  {
    "STUDYID": "CDISCPILOT01",
    "DOMAIN": "EX",
    "USUBJID": "CDISC002",
    "SPDEVID": "DEV0002",
    "EXSEQ": 23.0,
    "EXTRT": "ZANOMALINE",
    "EXDOSE": 54.0,
    "EXDOSU": "mg",
    "EXDOSFRM": "INJECTION",
    "EXDOSFRQ": "QD",
    "EXROUTE": "SUBCUTANEOUS",
    "EXLOT": "SDS580-359",
    "EPOCH": "TREATMENT",
    "EXSTDTC": "2012-12-07",
    "EXENDTC": "2012-12-07",
    "EXSTDY": 23.0,
    "EXENDY": 23.0
  },
  {
    "STUDYID": "CDISCPILOT01",
    "DOMAIN": "EX",
    "USUBJID": "CDISC002",
    "SPDEVID": "DEV0002",
    "EXSEQ": 24.0,
    "EXTRT": "ZANOMALINE",
    "EXDOSE": 54.0,
    "EXDOSU": "mg",
    "EXDOSFRM": "INJECTION",
    "EXDOSFRQ": "QD",
    "EXROUTE": "SUBCUTANEOUS",
    "EXLOT": "SDS580-359",
    "EPOCH": "TREATMENT",
    "EXSTDTC": "2012-12-08",
    "EXENDTC": "2012-12-08",
    "EXSTDY": 24.0,
    "EXENDY": 24.0
  },
  {
    "STUDYID": "CDISCPILOT01",
    "DOMAIN": "EX",
    "USUBJID": "CDISC002",
    "SPDEVID": "DEV0002",
    "EXSEQ": 25.0,
    "EXTRT": "ZANOMALINE",
    "EXDOSE": 54.0,
    "EXDOSU": "mg",
    "EXDOSFRM": "INJECTION",
    "EXDOSFRQ": "QD",
    "EXROUTE": "SUBCUTANEOUS",
    "EXLOT": "SDS580-359",
    "EPOCH": "TREATMENT",
    "EXSTDTC": "2012-12-09",
    "EXENDTC": "2012-12-09",
    "EXSTDY": 25.0,
    "EXENDY": 25.0
  },
  {
    "STUDYID": "CDISCPILOT01",
    "DOMAIN": "EX",
    "USUBJID": "CDISC002",
    "SPDEVID": "DEV0002",
    "EXSEQ": 26.0,
    "EXTRT": "ZANOMALINE",
    "EXDOSE": 54.0,
    "EXDOSU": "mg",
    "EXDOSFRM": "INJECTION",
    "EXDOSFRQ": "QD",
    "EXROUTE": "SUBCUTANEOUS",
    "EXLOT": "SDS580-359",
    "EPOCH": "TREATMENT",
    "EXSTDTC": "2012-12-10",
    "EXENDTC": "2012-12-10",
    "EXSTDY": 26.0,
    "EXENDY": 26.0
  },
  {
    "STUDYID": "CDISCPILOT01",
    "DOMAIN": "EX",
    "USUBJID": "CDISC002",
    "SPDEVID": "DEV0002",
    "EXSEQ": 27.0,
    "EXTRT": "ZANOMALINE",
    "EXDOSE": 54.0,
    "EXDOSU": "mg",
    "EXDOSFRM": "INJECTION",
    "EXDOSFRQ": "QD",
    "EXROUTE": "SUBCUTANEOUS",
    "EXLOT": "SDS580-359",
    "EPOCH": "TREATMENT",
    "EXSTDTC": "2012-12-11",
    "EXENDTC": "2012-12-11",
    "EXSTDY": 27.0,
    "EXENDY": 27.0
  },
  {
    "STUDYID": "CDISCPILOT01",
    "DOMAIN": "EX",
    "USUBJID": "CDISC002",
    "SPDEVID": "DEV0002",
    "EXSEQ": 28.0,
    "EXTRT": "ZANOMALINE",
    "EXDOSE": 54.0,
    "EXDOSU": "mg",
    "EXDOSFRM": "INJECTION",
    "EXDOSFRQ": "QD",
    "EXROUTE": "SUBCUTANEOUS",
    "EXLOT": "SDS580-359",
    "EPOCH": "TREATMENT",
    "EXSTDTC": "2012-12-12",
    "EXENDTC": "2012-12-12",
    "EXSTDY": 28.0,
    "EXENDY": 28.0
  },
  {
    "STUDYID": "CDISCPILOT01",
    "DOMAIN": "EX",
    "USUBJID": "CDISC002",
    "SPDEVID": "DEV0002",
    "EXSEQ": 29.0,
    "EXTRT": "ZANOMALINE",
    "EXDOSE": 54.0,
    "EXDOSU": "mg",
    "EXDOSFRM": "INJECTION",
    "EXDOSFRQ": "QD",
    "EXROUTE": "SUBCUTANEOUS",
    "EXLOT": "SDS580-359",
    "EPOCH": "TREATMENT",
    "EXSTDTC": "2012-12-13",
    "EXENDTC": "2012-12-13",
    "EXSTDY": 29.0,
    "EXENDY": 29.0
  },
  {
    "STUDYID": "CDISCPILOT01",
    "DOMAIN": "EX",
    "USUBJID": "CDISC002",
    "SPDEVID": "DEV0002",
    "EXSEQ": 30.0,
    "EXTRT": "ZANOMALINE",
    "EXDOSE": 54.0,
    "EXDOSU": "mg",
    "EXDOSFRM": "INJECTION",
    "EXDOSFRQ": "QD",
    "EXROUTE": "SUBCUTANEOUS",
    "EXLOT": "SDS580-359",
    "EPOCH": "TREATMENT",
    "EXSTDTC": "2012-12-14",
    "EXENDTC": "2012-12-14",
    "EXSTDY": 30.0,
    "EXENDY": 30.0
  },
  {
    "STUDYID": "CDISCPILOT01",
    "DOMAIN": "EX",
    "USUBJID": "CDISC002",
    "SPDEVID": "DEV0002",
    "EXSEQ": 31.0,
    "EXTRT": "ZANOMALINE",
    "EXDOSE": 54.0,
    "EXDOSU": "mg",
    "EXDOSFRM": "INJECTION",
    "EXDOSFRQ": "QD",
    "EXROUTE": "SUBCUTANEOUS",
    "EXLOT": "SDS580-359",
    "EPOCH": "TREATMENT",
    "EXSTDTC": "2012-12-15",
    "EXENDTC": "2012-12-15",
    "EXSTDY": 31.0,
    "EXENDY": 31.0
  },
  {
    "STUDYID": "CDISCPILOT01",
    "DOMAIN": "EX",
    "USUBJID": "CDISC002",
    "SPDEVID": "DEV0002",
    "EXSEQ": 32.0,
    "EXTRT": "ZANOMALINE",
    "EXDOSE": 54.0,
    "EXDOSU": "mg",
    "EXDOSFRM": "INJECTION",
    "EXDOSFRQ": "QD",
    "EXROUTE": "SUBCUTANEOUS",
    "EXLOT": "SDS580-359",
    "EPOCH": "TREATMENT",
    "EXSTDTC": "2012-12-16",
    "EXENDTC": "2012-12-16",
    "EXSTDY": 32.0,
    "EXENDY": 32.0
  },
  {
    "STUDYID": "CDISCPILOT01",
    "DOMAIN": "EX",
    "USUBJID": "CDISC002",
    "SPDEVID": "DEV0002",
    "EXSEQ": 33.0,
    "EXTRT": "ZANOMALINE",
    "EXDOSE": 54.0,
    "EXDOSU": "mg",
    "EXDOSFRM": "INJECTION",
    "EXDOSFRQ": "QD",
    "EXROUTE": "SUBCUTANEOUS",
    "EXLOT": "SDS580-359",
    "EPOCH": "TREATMENT",
    "EXSTDTC": "2012-12-17",
    "EXENDTC": "2012-12-17",
    "EXSTDY": 33.0,
    "EXENDY": 33.0
  },
  {
    "STUDYID": "CDISCPILOT01",
    "DOMAIN": "EX",
    "USUBJID": "CDISC002",
    "SPDEVID": "DEV0002",
    "EXSEQ": 34.0,
    "EXTRT": "ZANOMALINE",
    "EXDOSE": 54.0,
    "EXDOSU": "mg",
    "EXDOSFRM": "INJECTION",
    "EXDOSFRQ": "QD",
    "EXROUTE": "SUBCUTANEOUS",
    "EXLOT": "SDS580-359",
    "EPOCH": "TREATMENT",
    "EXSTDTC": "2012-12-18",
    "EXENDTC": "2012-12-18",
    "EXSTDY": 34.0,
    "EXENDY": 34.0
  },
  {
    "STUDYID": "CDISCPILOT01",
    "DOMAIN": "EX",
    "USUBJID": "CDISC002",
    "SPDEVID": "DEV0002",
    "EXSEQ": 35.0,
    "EXTRT": "ZANOMALINE",
    "EXDOSE": 54.0,
    "EXDOSU": "mg",
    "EXDOSFRM": "INJECTION",
    "EXDOSFRQ": "QD",
    "EXROUTE": "SUBCUTANEOUS",
    "EXLOT": "SDS580-359",
    "EPOCH": "TREATMENT",
    "EXSTDTC": "2012-12-19",
    "EXENDTC": "2012-12-19",
    "EXSTDY": 35.0,
    "EXENDY": 35.0
  },
  {
    "STUDYID": "CDISCPILOT01",
    "DOMAIN": "EX",
    "USUBJID": "CDISC002",
    "SPDEVID": "DEV0002",
    "EXSEQ": 36.0,
    "EXTRT": "ZANOMALINE",
    "EXDOSE": 54.0,
    "EXDOSU": "mg",
    "EXDOSFRM": "INJECTION",
    "EXDOSFRQ": "QD",
    "EXROUTE": "SUBCUTANEOUS",
    "EXLOT": "SDS580-359",
    "EPOCH": "TREATMENT",
    "EXSTDTC": "2012-12-20",
    "EXENDTC": "2012-12-20",
    "EXSTDY": 36.0,
    "EXENDY": 36.0
  },
  {
    "STUDYID": "CDISCPILOT01",
    "DOMAIN": "EX",
    "USUBJID": "CDISC002",
    "SPDEVID": "DEV0002",
    "EXSEQ": 37.0,
    "EXTRT": "ZANOMALINE",
    "EXDOSE": 54.0,
    "EXDOSU": "mg",
    "EXDOSFRM": "INJECTION",
    "EXDOSFRQ": "QD",
    "EXROUTE": "SUBCUTANEOUS",
    "EXLOT": "SDS580-359",
    "EPOCH": "TREATMENT",
    "EXSTDTC": "2012-12-21",
    "EXENDTC": "2012-12-21",
    "EXSTDY": 37.0,
    "EXENDY": 37.0
  },
  {
    "STUDYID": "CDISCPILOT01",
    "DOMAIN": "EX",
    "USUBJID": "CDISC002",
    "SPDEVID": "DEV0002",
    "EXSEQ": 38.0,
    "EXTRT": "ZANOMALINE",
    "EXDOSE": 54.0,
    "EXDOSU": "mg",
    "EXDOSFRM": "INJECTION",
    "EXDOSFRQ": "QD",
    "EXROUTE": "SUBCUTANEOUS",
    "EXLOT": "SDS580-359",
    "EPOCH": "TREATMENT",
    "EXSTDTC": "2012-12-22",
    "EXENDTC": "2012-12-22",
    "EXSTDY": 38.0,
    "EXENDY": 38.0
  },
  {
    "STUDYID": "CDISCPILOT01",
    "DOMAIN": "EX",
    "USUBJID": "CDISC002",
    "SPDEVID": "DEV0002",
    "EXSEQ": 39.0,
    "EXTRT": "ZANOMALINE",
    "EXDOSE": 54.0,
    "EXDOSU": "mg",
    "EXDOSFRM": "INJECTION",
    "EXDOSFRQ": "QD",
    "EXROUTE": "SUBCUTANEOUS",
    "EXLOT": "SDS580-359",
    "EPOCH": "TREATMENT",
    "EXSTDTC": "2012-12-23",
    "EXENDTC": "2012-12-23",
    "EXSTDY": 39.0,
    "EXENDY": 39.0
  },
  {
    "STUDYID": "CDISCPILOT01",
    "DOMAIN": "EX",
    "USUBJID": "CDISC002",
    "SPDEVID": "DEV0002",
    "EXSEQ": 40.0,
    "EXTRT": "ZANOMALINE",
    "EXDOSE": 54.0,
    "EXDOSU": "mg",
    "EXDOSFRM": "INJECTION",
    "EXDOSFRQ": "QD",
    "EXROUTE": "SUBCUTANEOUS",
    "EXLOT": "SDS580-359",
    "EPOCH": "TREATMENT",
    "EXSTDTC": "2012-12-24",
    "EXENDTC": "2012-12-24",
    "EXSTDY": 40.0,
    "EXENDY": 40.0
  },
  {
    "STUDYID": "CDISCPILOT01",
    "DOMAIN": "EX",
    "USUBJID": "CDISC002",
    "SPDEVID": "DEV0002",
    "EXSEQ": 41.0,
    "EXTRT": "ZANOMALINE",
    "EXDOSE": 54.0,
    "EXDOSU": "mg",
    "EXDOSFRM": "INJECTION",
    "EXDOSFRQ": "QD",
    "EXROUTE": "SUBCUTANEOUS",
    "EXLOT": "SDS580-359",
    "EPOCH": "TREATMENT",
    "EXSTDTC": "2012-12-25",
    "EXENDTC": "2012-12-25",
    "EXSTDY": 41.0,
    "EXENDY": 41.0
  },
  {
    "STUDYID": "CDISCPILOT01",
    "DOMAIN": "EX",
    "USUBJID": "CDISC002",
    "SPDEVID": "DEV0002",
    "EXSEQ": 42.0,
    "EXTRT": "ZANOMALINE",
    "EXDOSE": 54.0,
    "EXDOSU": "mg",
    "EXDOSFRM": "INJECTION",
    "EXDOSFRQ": "QD",
    "EXROUTE": "SUBCUTANEOUS",
    "EXLOT": "SDS580-359",
    "EPOCH": "TREATMENT",
    "EXSTDTC": "2012-12-26",
    "EXENDTC": "2012-12-26",
    "EXSTDY": 42.0,
    "EXENDY": 42.0
  },
  {
    "STUDYID": "CDISCPILOT01",
    "DOMAIN": "EX",
    "USUBJID": "CDISC002",
    "SPDEVID": "DEV0002",
    "EXSEQ": 43.0,
    "EXTRT": "ZANOMALINE",
    "EXDOSE": 54.0,
    "EXDOSU": "mg",
    "EXDOSFRM": "INJECTION",
    "EXDOSFRQ": "QD",
    "EXROUTE": "SUBCUTANEOUS",
    "EXLOT": "SDS580-359",
    "EPOCH": "TREATMENT",
    "EXSTDTC": "2012-12-27",
    "EXENDTC": "2012-12-27",
    "EXSTDY": 43.0,
    "EXENDY": 43.0
  },
  {
    "STUDYID": "CDISCPILOT01",
    "DOMAIN": "EX",
    "USUBJID": "CDISC002",
    "SPDEVID": "DEV0002",
    "EXSEQ": 44.0,
    "EXTRT": "ZANOMALINE",
    "EXDOSE": 54.0,
    "EXDOSU": "mg",
    "EXDOSFRM": "INJECTION",
    "EXDOSFRQ": "QD",
    "EXROUTE": "SUBCUTANEOUS",
    "EXLOT": "SDS580-359",
    "EPOCH": "TREATMENT",
    "EXSTDTC": "2012-12-28",
    "EXENDTC": "2012-12-28",
    "EXSTDY": 44.0,
    "EXENDY": 44.0
  },
  {
    "STUDYID": "CDISCPILOT01",
    "DOMAIN": "EX",
    "USUBJID": "CDISC002",
    "SPDEVID": "DEV0002",
    "EXSEQ": 45.0,
    "EXTRT": "ZANOMALINE",
    "EXDOSE": 54.0,
    "EXDOSU": "mg",
    "EXDOSFRM": "INJECTION",
    "EXDOSFRQ": "QD",
    "EXROUTE": "SUBCUTANEOUS",
    "EXLOT": "SDS580-359",
    "EPOCH": "TREATMENT",
    "EXSTDTC": "2012-12-29",
    "EXENDTC": "2012-12-29",
    "EXSTDY": 45.0,
    "EXENDY": 45.0
  },
  {
    "STUDYID": "CDISCPILOT01",
    "DOMAIN": "EX",
    "USUBJID": "CDISC002",
    "SPDEVID": "DEV0002",
    "EXSEQ": 46.0,
    "EXTRT": "ZANOMALINE",
    "EXDOSE": 54.0,
    "EXDOSU": "mg",
    "EXDOSFRM": "INJECTION",
    "EXDOSFRQ": "QD",
    "EXROUTE": "SUBCUTANEOUS",
    "EXLOT": "SDS580-359",
    "EPOCH": "TREATMENT",
    "EXSTDTC": "2012-12-30",
    "EXENDTC": "2012-12-30",
    "EXSTDY": 46.0,
    "EXENDY": 46.0
  },
  {
    "STUDYID": "CDISCPILOT01",
    "DOMAIN": "EX",
    "USUBJID": "CDISC002",
    "SPDEVID": "DEV0002",
    "EXSEQ": 47.0,
    "EXTRT": "ZANOMALINE",
    "EXDOSE": 54.0,
    "EXDOSU": "mg",
    "EXDOSFRM": "INJECTION",
    "EXDOSFRQ": "QD",
    "EXROUTE": "SUBCUTANEOUS",
    "EXLOT": "SDS580-359",
    "EPOCH": "TREATMENT",
    "EXSTDTC": "2012-12-31",
    "EXENDTC": "2012-12-31",
    "EXSTDY": 47.0,
    "EXENDY": 47.0
  },
  {
    "STUDYID": "CDISCPILOT01",
    "DOMAIN": "EX",
    "USUBJID": "CDISC002",
    "SPDEVID": "DEV0002",
    "EXSEQ": 48.0,
    "EXTRT": "ZANOMALINE",
    "EXDOSE": 54.0,
    "EXDOSU": "mg",
    "EXDOSFRM": "INJECTION",
    "EXDOSFRQ": "QD",
    "EXROUTE": "SUBCUTANEOUS",
    "EXLOT": "SDS580-359",
    "EPOCH": "TREATMENT",
    "EXSTDTC": "2013-01-01",
    "EXENDTC": "2013-01-01",
    "EXSTDY": 48.0,
    "EXENDY": 48.0
  },
  {
    "STUDYID": "CDISCPILOT01",
    "DOMAIN": "EX",
    "USUBJID": "CDISC002",
    "SPDEVID": "DEV0002",
    "EXSEQ": 49.0,
    "EXTRT": "ZANOMALINE",
    "EXDOSE": 54.0,
    "EXDOSU": "mg",
    "EXDOSFRM": "INJECTION",
    "EXDOSFRQ": "QD",
    "EXROUTE": "SUBCUTANEOUS",
    "EXLOT": "SDS580-359",
    "EPOCH": "TREATMENT",
    "EXSTDTC": "2013-01-02",
    "EXENDTC": "2013-01-02",
    "EXSTDY": 49.0,
    "EXENDY": 49.0
  },
  {
    "STUDYID": "CDISCPILOT01",
    "DOMAIN": "EX",
    "USUBJID": "CDISC002",
    "SPDEVID": "DEV0002",
    "EXSEQ": 50.0,
    "EXTRT": "ZANOMALINE",
    "EXDOSE": 54.0,
    "EXDOSU": "mg",
    "EXDOSFRM": "INJECTION",
    "EXDOSFRQ": "QD",
    "EXROUTE": "SUBCUTANEOUS",
    "EXLOT": "SDS580-359",
    "EPOCH": "TREATMENT",
    "EXSTDTC": "2013-01-03",
    "EXENDTC": "2013-01-03",
    "EXSTDY": 50.0,
    "EXENDY": 50.0
  },
  {
    "STUDYID": "CDISCPILOT01",
    "DOMAIN": "EX",
    "USUBJID": "CDISC002",
    "SPDEVID": "DEV0002",
    "EXSEQ": 51.0,
    "EXTRT": "ZANOMALINE",
    "EXDOSE": 54.0,
    "EXDOSU": "mg",
    "EXDOSFRM": "INJECTION",
    "EXDOSFRQ": "QD",
    "EXROUTE": "SUBCUTANEOUS",
    "EXLOT": "SDS580-359",
    "EPOCH": "TREATMENT",
    "EXSTDTC": "2013-01-04",
    "EXENDTC": "2013-01-04",
    "EXSTDY": 51.0,
    "EXENDY": 51.0
  },
  {
    "STUDYID": "CDISCPILOT01",
    "DOMAIN": "EX",
    "USUBJID": "CDISC002",
    "SPDEVID": "DEV0002",
    "EXSEQ": 52.0,
    "EXTRT": "ZANOMALINE",
    "EXDOSE": 54.0,
    "EXDOSU": "mg",
    "EXDOSFRM": "INJECTION",
    "EXDOSFRQ": "QD",
    "EXROUTE": "SUBCUTANEOUS",
    "EXLOT": "SDS580-359",
    "EPOCH": "TREATMENT",
    "EXSTDTC": "2013-01-05",
    "EXENDTC": "2013-01-05",
    "EXSTDY": 52.0,
    "EXENDY": 52.0
  },
  {
    "STUDYID": "CDISCPILOT01",
    "DOMAIN": "EX",
    "USUBJID": "CDISC002",
    "SPDEVID": "DEV0002",
    "EXSEQ": 53.0,
    "EXTRT": "ZANOMALINE",
    "EXDOSE": 54.0,
    "EXDOSU": "mg",
    "EXDOSFRM": "INJECTION",
    "EXDOSFRQ": "QD",
    "EXROUTE": "SUBCUTANEOUS",
    "EXLOT": "SDS580-359",
    "EPOCH": "TREATMENT",
    "EXSTDTC": "2013-01-06",
    "EXENDTC": "2013-01-06",
    "EXSTDY": 53.0,
    "EXENDY": 53.0
  },
  {
    "STUDYID": "CDISCPILOT01",
    "DOMAIN": "EX",
    "USUBJID": "CDISC002",
    "SPDEVID": "DEV0002",
    "EXSEQ": 54.0,
    "EXTRT": "ZANOMALINE",
    "EXDOSE": 54.0,
    "EXDOSU": "mg",
    "EXDOSFRM": "INJECTION",
    "EXDOSFRQ": "QD",
    "EXROUTE": "SUBCUTANEOUS",
    "EXLOT": "SDS580-359",
    "EPOCH": "TREATMENT",
    "EXSTDTC": "2013-01-07",
    "EXENDTC": "2013-01-07",
    "EXSTDY": 54.0,
    "EXENDY": 54.0
  },
  {
    "STUDYID": "CDISCPILOT01",
    "DOMAIN": "EX",
    "USUBJID": "CDISC002",
    "SPDEVID": "DEV0002",
    "EXSEQ": 55.0,
    "EXTRT": "ZANOMALINE",
    "EXDOSE": 54.0,
    "EXDOSU": "mg",
    "EXDOSFRM": "INJECTION",
    "EXDOSFRQ": "QD",
    "EXROUTE": "SUBCUTANEOUS",
    "EXLOT": "SDS580-359",
    "EPOCH": "TREATMENT",
    "EXSTDTC": "2013-01-08",
    "EXENDTC": "2013-01-08",
    "EXSTDY": 55.0,
    "EXENDY": 55.0
  },
  {
    "STUDYID": "CDISCPILOT01",
    "DOMAIN": "EX",
    "USUBJID": "CDISC002",
    "SPDEVID": "DEV0002",
    "EXSEQ": 56.0,
    "EXTRT": "ZANOMALINE",
    "EXDOSE": 54.0,
    "EXDOSU": "mg",
    "EXDOSFRM": "INJECTION",
    "EXDOSFRQ": "QD",
    "EXROUTE": "SUBCUTANEOUS",
    "EXLOT": "SDS580-359",
    "EPOCH": "TREATMENT",
    "EXSTDTC": "2013-01-09",
    "EXENDTC": "2013-01-09",
    "EXSTDY": 56.0,
    "EXENDY": 56.0
  },
  {
    "STUDYID": "CDISCPILOT01",
    "DOMAIN": "EX",
    "USUBJID": "CDISC002",
    "SPDEVID": "DEV0002",
    "EXSEQ": 57.0,
    "EXTRT": "ZANOMALINE",
    "EXDOSE": 54.0,
    "EXDOSU": "mg",
    "EXDOSFRM": "INJECTION",
    "EXDOSFRQ": "QD",
    "EXROUTE": "SUBCUTANEOUS",
    "EXLOT": "SDS580-359",
    "EPOCH": "TREATMENT",
    "EXSTDTC": "2013-01-10",
    "EXENDTC": "2013-01-10",
    "EXSTDY": 57.0,
    "EXENDY": 57.0
  },
  {
    "STUDYID": "CDISCPILOT01",
    "DOMAIN": "EX",
    "USUBJID": "CDISC002",
    "SPDEVID": "DEV0002",
    "EXSEQ": 58.0,
    "EXTRT": "ZANOMALINE",
    "EXDOSE": 54.0,
    "EXDOSU": "mg",
    "EXDOSFRM": "INJECTION",
    "EXDOSFRQ": "QD",
    "EXROUTE": "SUBCUTANEOUS",
    "EXLOT": "SDS580-359",
    "EPOCH": "TREATMENT",
    "EXSTDTC": "2013-01-11",
    "EXENDTC": "2013-01-11",
    "EXSTDY": 58.0,
    "EXENDY": 58.0
  },
  {
    "STUDYID": "CDISCPILOT01",
    "DOMAIN": "EX",
    "USUBJID": "CDISC002",
    "SPDEVID": "DEV0002",
    "EXSEQ": 59.0,
    "EXTRT": "ZANOMALINE",
    "EXDOSE": 54.0,
    "EXDOSU": "mg",
    "EXDOSFRM": "INJECTION",
    "EXDOSFRQ": "QD",
    "EXROUTE": "SUBCUTANEOUS",
    "EXLOT": "SDS580-359",
    "EPOCH": "TREATMENT",
    "EXSTDTC": "2013-01-12",
    "EXENDTC": "2013-01-12",
    "EXSTDY": 59.0,
    "EXENDY": 59.0
  },
  {
    "STUDYID": "CDISCPILOT01",
    "DOMAIN": "EX",
    "USUBJID": "CDISC003",
    "SPDEVID": "DEV0003",
    "EXSEQ": 1.0,
    "EXTRT": "ZANOMALINE",
    "EXDOSE": 54.0,
    "EXDOSU": "mg",
    "EXDOSFRM": "INJECTION",
    "EXDOSFRQ": "QD",
    "EXROUTE": "SUBCUTANEOUS",
    "EXLOT": "SDS580-359",
    "EPOCH": "TREATMENT",
    "EXSTDTC": "2013-08-29",
    "EXENDTC": "2013-08-29",
    "EXSTDY": 1.0,
    "EXENDY": 1.0
  },
  {
    "STUDYID": "CDISCPILOT01",
    "DOMAIN": "EX",
    "USUBJID": "CDISC003",
    "SPDEVID": "DEV0003",
    "EXSEQ": 2.0,
    "EXTRT": "ZANOMALINE",
    "EXDOSE": 54.0,
    "EXDOSU": "mg",
    "EXDOSFRM": "INJECTION",
    "EXDOSFRQ": "QD",
    "EXROUTE": "SUBCUTANEOUS",
    "EXLOT": "SDS580-359",
    "EPOCH": "TREATMENT",
    "EXSTDTC": "2013-08-30",
    "EXENDTC": "2013-08-30",
    "EXSTDY": 2.0,
    "EXENDY": 2.0
  },
  {
    "STUDYID": "CDISCPILOT01",
    "DOMAIN": "EX",
    "USUBJID": "CDISC003",
    "SPDEVID": "DEV0003",
    "EXSEQ": 3.0,
    "EXTRT": "ZANOMALINE",
    "EXDOSE": 54.0,
    "EXDOSU": "mg",
    "EXDOSFRM": "INJECTION",
    "EXDOSFRQ": "QD",
    "EXROUTE": "SUBCUTANEOUS",
    "EXLOT": "SDS580-359",
    "EPOCH": "TREATMENT",
    "EXSTDTC": "2013-08-31",
    "EXENDTC": "2013-08-31",
    "EXSTDY": 3.0,
    "EXENDY": 3.0
  },
  {
    "STUDYID": "CDISCPILOT01",
    "DOMAIN": "EX",
    "USUBJID": "CDISC003",
    "SPDEVID": "DEV0003",
    "EXSEQ": 4.0,
    "EXTRT": "ZANOMALINE",
    "EXDOSE": 54.0,
    "EXDOSU": "mg",
    "EXDOSFRM": "INJECTION",
    "EXDOSFRQ": "QD",
    "EXROUTE": "SUBCUTANEOUS",
    "EXLOT": "SDS580-359",
    "EPOCH": "TREATMENT",
    "EXSTDTC": "2013-09-01",
    "EXENDTC": "2013-09-01",
    "EXSTDY": 4.0,
    "EXENDY": 4.0
  },
  {
    "STUDYID": "CDISCPILOT01",
    "DOMAIN": "EX",
    "USUBJID": "CDISC003",
    "SPDEVID": "DEV0003",
    "EXSEQ": 5.0,
    "EXTRT": "ZANOMALINE",
    "EXDOSE": 54.0,
    "EXDOSU": "mg",
    "EXDOSFRM": "INJECTION",
    "EXDOSFRQ": "QD",
    "EXROUTE": "SUBCUTANEOUS",
    "EXLOT": "SDS580-359",
    "EPOCH": "TREATMENT",
    "EXSTDTC": "2013-09-02",
    "EXENDTC": "2013-09-02",
    "EXSTDY": 5.0,
    "EXENDY": 5.0
  },
  {
    "STUDYID": "CDISCPILOT01",
    "DOMAIN": "EX",
    "USUBJID": "CDISC003",
    "SPDEVID": "DEV0003",
    "EXSEQ": 6.0,
    "EXTRT": "ZANOMALINE",
    "EXDOSE": 54.0,
    "EXDOSU": "mg",
    "EXDOSFRM": "INJECTION",
    "EXDOSFRQ": "QD",
    "EXROUTE": "SUBCUTANEOUS",
    "EXLOT": "SDS580-359",
    "EPOCH": "TREATMENT",
    "EXSTDTC": "2013-09-03",
    "EXENDTC": "2013-09-03",
    "EXSTDY": 6.0,
    "EXENDY": 6.0
  },
  {
    "STUDYID": "CDISCPILOT01",
    "DOMAIN": "EX",
    "USUBJID": "CDISC003",
    "SPDEVID": "DEV0003",
    "EXSEQ": 7.0,
    "EXTRT": "ZANOMALINE",
    "EXDOSE": 54.0,
    "EXDOSU": "mg",
    "EXDOSFRM": "INJECTION",
    "EXDOSFRQ": "QD",
    "EXROUTE": "SUBCUTANEOUS",
    "EXLOT": "SDS580-359",
    "EPOCH": "TREATMENT",
    "EXSTDTC": "2013-09-04",
    "EXENDTC": "2013-09-04",
    "EXSTDY": 7.0,
    "EXENDY": 7.0
  },
  {
    "STUDYID": "CDISCPILOT01",
    "DOMAIN": "EX",
    "USUBJID": "CDISC003",
    "SPDEVID": "DEV0003",
    "EXSEQ": 8.0,
    "EXTRT": "ZANOMALINE",
    "EXDOSE": 54.0,
    "EXDOSU": "mg",
    "EXDOSFRM": "INJECTION",
    "EXDOSFRQ": "QD",
    "EXROUTE": "SUBCUTANEOUS",
    "EXLOT": "SDS580-359",
    "EPOCH": "TREATMENT",
    "EXSTDTC": "2013-09-05",
    "EXENDTC": "2013-09-05",
    "EXSTDY": 8.0,
    "EXENDY": 8.0
  },
  {
    "STUDYID": "CDISCPILOT01",
    "DOMAIN": "EX",
    "USUBJID": "CDISC003",
    "SPDEVID": "DEV0003",
    "EXSEQ": 9.0,
    "EXTRT": "ZANOMALINE",
    "EXDOSE": 54.0,
    "EXDOSU": "mg",
    "EXDOSFRM": "INJECTION",
    "EXDOSFRQ": "QD",
    "EXROUTE": "SUBCUTANEOUS",
    "EXLOT": "SDS580-359",
    "EPOCH": "TREATMENT",
    "EXSTDTC": "2013-09-06",
    "EXENDTC": "2013-09-06",
    "EXSTDY": 9.0,
    "EXENDY": 9.0
  },
  {
    "STUDYID": "CDISCPILOT01",
    "DOMAIN": "EX",
    "USUBJID": "CDISC003",
    "SPDEVID": "DEV0003",
    "EXSEQ": 10.0,
    "EXTRT": "ZANOMALINE",
    "EXDOSE": 54.0,
    "EXDOSU": "mg",
    "EXDOSFRM": "INJECTION",
    "EXDOSFRQ": "QD",
    "EXROUTE": "SUBCUTANEOUS",
    "EXLOT": "SDS580-359",
    "EPOCH": "TREATMENT",
    "EXSTDTC": "2013-09-07",
    "EXENDTC": "2013-09-07",
    "EXSTDY": 10.0,
    "EXENDY": 10.0
  },
  {
    "STUDYID": "CDISCPILOT01",
    "DOMAIN": "EX",
    "USUBJID": "CDISC003",
    "SPDEVID": "DEV0003",
    "EXSEQ": 11.0,
    "EXTRT": "ZANOMALINE",
    "EXDOSE": 54.0,
    "EXDOSU": "mg",
    "EXDOSFRM": "INJECTION",
    "EXDOSFRQ": "QD",
    "EXROUTE": "SUBCUTANEOUS",
    "EXLOT": "SDS580-359",
    "EPOCH": "TREATMENT",
    "EXSTDTC": "2013-09-08",
    "EXENDTC": "2013-09-08",
    "EXSTDY": 11.0,
    "EXENDY": 11.0
  },
  {
    "STUDYID": "CDISCPILOT01",
    "DOMAIN": "EX",
    "USUBJID": "CDISC003",
    "SPDEVID": "DEV0003",
    "EXSEQ": 12.0,
    "EXTRT": "ZANOMALINE",
    "EXDOSE": 54.0,
    "EXDOSU": "mg",
    "EXDOSFRM": "INJECTION",
    "EXDOSFRQ": "QD",
    "EXROUTE": "SUBCUTANEOUS",
    "EXLOT": "SDS580-359",
    "EPOCH": "TREATMENT",
    "EXSTDTC": "2013-09-09",
    "EXENDTC": "2013-09-09",
    "EXSTDY": 12.0,
    "EXENDY": 12.0
  },
  {
    "STUDYID": "CDISCPILOT01",
    "DOMAIN": "EX",
    "USUBJID": "CDISC003",
    "SPDEVID": "DEV0003",
    "EXSEQ": 13.0,
    "EXTRT": "ZANOMALINE",
    "EXDOSE": 54.0,
    "EXDOSU": "mg",
    "EXDOSFRM": "INJECTION",
    "EXDOSFRQ": "QD",
    "EXROUTE": "SUBCUTANEOUS",
    "EXLOT": "SDS580-359",
    "EPOCH": "TREATMENT",
    "EXSTDTC": "2013-09-10",
    "EXENDTC": "2013-09-10",
    "EXSTDY": 13.0,
    "EXENDY": 13.0
  },
  {
    "STUDYID": "CDISCPILOT01",
    "DOMAIN": "EX",
    "USUBJID": "CDISC003",
    "SPDEVID": "DEV0003",
    "EXSEQ": 14.0,
    "EXTRT": "ZANOMALINE",
    "EXDOSE": 54.0,
    "EXDOSU": "mg",
    "EXDOSFRM": "INJECTION",
    "EXDOSFRQ": "QD",
    "EXROUTE": "SUBCUTANEOUS",
    "EXLOT": "SDS580-359",
    "EPOCH": "TREATMENT",
    "EXSTDTC": "2013-09-11",
    "EXENDTC": "2013-09-11",
    "EXSTDY": 14.0,
    "EXENDY": 14.0
  },
  {
    "STUDYID": "CDISCPILOT01",
    "DOMAIN": "EX",
    "USUBJID": "CDISC003",
    "SPDEVID": "DEV0003",
    "EXSEQ": 15.0,
    "EXTRT": "ZANOMALINE",
    "EXDOSE": 54.0,
    "EXDOSU": "mg",
    "EXDOSFRM": "INJECTION",
    "EXDOSFRQ": "QD",
    "EXROUTE": "SUBCUTANEOUS",
    "EXLOT": "SDS580-359",
    "EPOCH": "TREATMENT",
    "EXSTDTC": "2013-09-12",
    "EXENDTC": "2013-09-12",
    "EXSTDY": 15.0,
    "EXENDY": 15.0
  },
  {
    "STUDYID": "CDISCPILOT01",
    "DOMAIN": "EX",
    "USUBJID": "CDISC003",
    "SPDEVID": "DEV0003",
    "EXSEQ": 16.0,
    "EXTRT": "ZANOMALINE",
    "EXDOSE": 54.0,
    "EXDOSU": "mg",
    "EXDOSFRM": "INJECTION",
    "EXDOSFRQ": "QD",
    "EXROUTE": "SUBCUTANEOUS",
    "EXLOT": "SDS580-359",
    "EPOCH": "TREATMENT",
    "EXSTDTC": "2013-09-13",
    "EXENDTC": "2013-09-13",
    "EXSTDY": 16.0,
    "EXENDY": 16.0
  },
  {
    "STUDYID": "CDISCPILOT01",
    "DOMAIN": "EX",
    "USUBJID": "CDISC003",
    "SPDEVID": "DEV0003",
    "EXSEQ": 17.0,
    "EXTRT": "ZANOMALINE",
    "EXDOSE": 54.0,
    "EXDOSU": "mg",
    "EXDOSFRM": "INJECTION",
    "EXDOSFRQ": "QD",
    "EXROUTE": "SUBCUTANEOUS",
    "EXLOT": "SDS580-359",
    "EPOCH": "TREATMENT",
    "EXSTDTC": "2013-09-14",
    "EXENDTC": "2013-09-14",
    "EXSTDY": 17.0,
    "EXENDY": 17.0
  },
  {
    "STUDYID": "CDISCPILOT01",
    "DOMAIN": "EX",
    "USUBJID": "CDISC003",
    "SPDEVID": "DEV0003",
    "EXSEQ": 18.0,
    "EXTRT": "ZANOMALINE",
    "EXDOSE": 54.0,
    "EXDOSU": "mg",
    "EXDOSFRM": "INJECTION",
    "EXDOSFRQ": "QD",
    "EXROUTE": "SUBCUTANEOUS",
    "EXLOT": "SDS580-359",
    "EPOCH": "TREATMENT",
    "EXSTDTC": "2013-09-15",
    "EXENDTC": "2013-09-15",
    "EXSTDY": 18.0,
    "EXENDY": 18.0
  },
  {
    "STUDYID": "CDISCPILOT01",
    "DOMAIN": "EX",
    "USUBJID": "CDISC003",
    "SPDEVID": "DEV0003",
    "EXSEQ": 19.0,
    "EXTRT": "ZANOMALINE",
    "EXDOSE": 81.0,
    "EXDOSU": "mg",
    "EXDOSFRM": "INJECTION",
    "EXDOSFRQ": "QD",
    "EXROUTE": "SUBCUTANEOUS",
    "EXLOT": "SDS580-359",
    "EPOCH": "TREATMENT",
    "EXSTDTC": "2013-09-16",
    "EXENDTC": "2013-09-16",
    "EXSTDY": 19.0,
    "EXENDY": 19.0
  },
  {
    "STUDYID": "CDISCPILOT01",
    "DOMAIN": "EX",
    "USUBJID": "CDISC003",
    "SPDEVID": "DEV0003",
    "EXSEQ": 20.0,
    "EXTRT": "ZANOMALINE",
    "EXDOSE": 81.0,
    "EXDOSU": "mg",
    "EXDOSFRM": "INJECTION",
    "EXDOSFRQ": "QD",
    "EXROUTE": "SUBCUTANEOUS",
    "EXLOT": "SDS580-359",
    "EPOCH": "TREATMENT",
    "EXSTDTC": "2013-09-17",
    "EXENDTC": "2013-09-17",
    "EXSTDY": 20.0,
    "EXENDY": 20.0
  },
  {
    "STUDYID": "CDISCPILOT01",
    "DOMAIN": "EX",
    "USUBJID": "CDISC003",
    "SPDEVID": "DEV0003",
    "EXSEQ": 21.0,
    "EXTRT": "ZANOMALINE",
    "EXDOSE": 81.0,
    "EXDOSU": "mg",
    "EXDOSFRM": "INJECTION",
    "EXDOSFRQ": "QD",
    "EXROUTE": "SUBCUTANEOUS",
    "EXLOT": "SDS580-359",
    "EPOCH": "TREATMENT",
    "EXSTDTC": "2013-09-18",
    "EXENDTC": "2013-09-18",
    "EXSTDY": 21.0,
    "EXENDY": 21.0
  },
  {
    "STUDYID": "CDISCPILOT01",
    "DOMAIN": "EX",
    "USUBJID": "CDISC003",
    "SPDEVID": "DEV0003",
    "EXSEQ": 22.0,
    "EXTRT": "ZANOMALINE",
    "EXDOSE": 81.0,
    "EXDOSU": "mg",
    "EXDOSFRM": "INJECTION",
    "EXDOSFRQ": "QD",
    "EXROUTE": "SUBCUTANEOUS",
    "EXLOT": "SDS580-359",
    "EPOCH": "TREATMENT",
    "EXSTDTC": "2013-09-19",
    "EXENDTC": "2013-09-19",
    "EXSTDY": 22.0,
    "EXENDY": 22.0
  },
  {
    "STUDYID": "CDISCPILOT01",
    "DOMAIN": "EX",
    "USUBJID": "CDISC003",
    "SPDEVID": "DEV0003",
    "EXSEQ": 23.0,
    "EXTRT": "ZANOMALINE",
    "EXDOSE": 81.0,
    "EXDOSU": "mg",
    "EXDOSFRM": "INJECTION",
    "EXDOSFRQ": "QD",
    "EXROUTE": "SUBCUTANEOUS",
    "EXLOT": "SDS580-359",
    "EPOCH": "TREATMENT",
    "EXSTDTC": "2013-09-20",
    "EXENDTC": "2013-09-20",
    "EXSTDY": 23.0,
    "EXENDY": 23.0
  },
  {
    "STUDYID": "CDISCPILOT01",
    "DOMAIN": "EX",
    "USUBJID": "CDISC003",
    "SPDEVID": "DEV0003",
    "EXSEQ": 24.0,
    "EXTRT": "ZANOMALINE",
    "EXDOSE": 81.0,
    "EXDOSU": "mg",
    "EXDOSFRM": "INJECTION",
    "EXDOSFRQ": "QD",
    "EXROUTE": "SUBCUTANEOUS",
    "EXLOT": "SDS580-359",
    "EPOCH": "TREATMENT",
    "EXSTDTC": "2013-09-21",
    "EXENDTC": "2013-09-21",
    "EXSTDY": 24.0,
    "EXENDY": 24.0
  },
  {
    "STUDYID": "CDISCPILOT01",
    "DOMAIN": "EX",
    "USUBJID": "CDISC003",
    "SPDEVID": "DEV0003",
    "EXSEQ": 25.0,
    "EXTRT": "ZANOMALINE",
    "EXDOSE": 81.0,
    "EXDOSU": "mg",
    "EXDOSFRM": "INJECTION",
    "EXDOSFRQ": "QD",
    "EXROUTE": "SUBCUTANEOUS",
    "EXLOT": "SDS580-359",
    "EPOCH": "TREATMENT",
    "EXSTDTC": "2013-09-22",
    "EXENDTC": "2013-09-22",
    "EXSTDY": 25.0,
    "EXENDY": 25.0
  },
  {
    "STUDYID": "CDISCPILOT01",
    "DOMAIN": "EX",
    "USUBJID": "CDISC003",
    "SPDEVID": "DEV0003",
    "EXSEQ": 26.0,
    "EXTRT": "ZANOMALINE",
    "EXDOSE": 81.0,
    "EXDOSU": "mg",
    "EXDOSFRM": "INJECTION",
    "EXDOSFRQ": "QD",
    "EXROUTE": "SUBCUTANEOUS",
    "EXLOT": "SDS580-359",
    "EPOCH": "TREATMENT",
    "EXSTDTC": "2013-09-23",
    "EXENDTC": "2013-09-23",
    "EXSTDY": 26.0,
    "EXENDY": 26.0
  },
  {
    "STUDYID": "CDISCPILOT01",
    "DOMAIN": "EX",
    "USUBJID": "CDISC003",
    "SPDEVID": "DEV0003",
    "EXSEQ": 27.0,
    "EXTRT": "ZANOMALINE",
    "EXDOSE": 81.0,
    "EXDOSU": "mg",
    "EXDOSFRM": "INJECTION",
    "EXDOSFRQ": "QD",
    "EXROUTE": "SUBCUTANEOUS",
    "EXLOT": "SDS580-359",
    "EPOCH": "TREATMENT",
    "EXSTDTC": "2013-09-24",
    "EXENDTC": "2013-09-24",
    "EXSTDY": 27.0,
    "EXENDY": 27.0
  },
  {
    "STUDYID": "CDISCPILOT01",
    "DOMAIN": "EX",
    "USUBJID": "CDISC003",
    "SPDEVID": "DEV0003",
    "EXSEQ": 28.0,
    "EXTRT": "ZANOMALINE",
    "EXDOSE": 81.0,
    "EXDOSU": "mg",
    "EXDOSFRM": "INJECTION",
    "EXDOSFRQ": "QD",
    "EXROUTE": "SUBCUTANEOUS",
    "EXLOT": "SDS580-359",
    "EPOCH": "TREATMENT",
    "EXSTDTC": "2013-09-25",
    "EXENDTC": "2013-09-25",
    "EXSTDY": 28.0,
    "EXENDY": 28.0
  },
  {
    "STUDYID": "CDISCPILOT01",
    "DOMAIN": "EX",
    "USUBJID": "CDISC003",
    "SPDEVID": "DEV0003",
    "EXSEQ": 29.0,
    "EXTRT": "ZANOMALINE",
    "EXDOSE": 81.0,
    "EXDOSU": "mg",
    "EXDOSFRM": "INJECTION",
    "EXDOSFRQ": "QD",
    "EXROUTE": "SUBCUTANEOUS",
    "EXLOT": "SDS580-359",
    "EPOCH": "TREATMENT",
    "EXSTDTC": "2013-09-26",
    "EXENDTC": "2013-09-26",
    "EXSTDY": 29.0,
    "EXENDY": 29.0
  },
  {
    "STUDYID": "CDISCPILOT01",
    "DOMAIN": "EX",
    "USUBJID": "CDISC003",
    "SPDEVID": "DEV0003",
    "EXSEQ": 30.0,
    "EXTRT": "ZANOMALINE",
    "EXDOSE": 81.0,
    "EXDOSU": "mg",
    "EXDOSFRM": "INJECTION",
    "EXDOSFRQ": "QD",
    "EXROUTE": "SUBCUTANEOUS",
    "EXLOT": "SDS580-359",
    "EPOCH": "TREATMENT",
    "EXSTDTC": "2013-09-27",
    "EXENDTC": "2013-09-27",
    "EXSTDY": 30.0,
    "EXENDY": 30.0
  },
  {
    "STUDYID": "CDISCPILOT01",
    "DOMAIN": "EX",
    "USUBJID": "CDISC003",
    "SPDEVID": "DEV0003",
    "EXSEQ": 31.0,
    "EXTRT": "ZANOMALINE",
    "EXDOSE": 81.0,
    "EXDOSU": "mg",
    "EXDOSFRM": "INJECTION",
    "EXDOSFRQ": "QD",
    "EXROUTE": "SUBCUTANEOUS",
    "EXLOT": "SDS580-359",
    "EPOCH": "TREATMENT",
    "EXSTDTC": "2013-09-28",
    "EXENDTC": "2013-09-28",
    "EXSTDY": 31.0,
    "EXENDY": 31.0
  },
  {
    "STUDYID": "CDISCPILOT01",
    "DOMAIN": "EX",
    "USUBJID": "CDISC003",
    "SPDEVID": "DEV0003",
    "EXSEQ": 32.0,
    "EXTRT": "ZANOMALINE",
    "EXDOSE": 81.0,
    "EXDOSU": "mg",
    "EXDOSFRM": "INJECTION",
    "EXDOSFRQ": "QD",
    "EXROUTE": "SUBCUTANEOUS",
    "EXLOT": "SDS580-359",
    "EPOCH": "TREATMENT",
    "EXSTDTC": "2013-09-29",
    "EXENDTC": "2013-09-29",
    "EXSTDY": 32.0,
    "EXENDY": 32.0
  },
  {
    "STUDYID": "CDISCPILOT01",
    "DOMAIN": "EX",
    "USUBJID": "CDISC003",
    "SPDEVID": "DEV0003",
    "EXSEQ": 33.0,
    "EXTRT": "ZANOMALINE",
    "EXDOSE": 81.0,
    "EXDOSU": "mg",
    "EXDOSFRM": "INJECTION",
    "EXDOSFRQ": "QD",
    "EXROUTE": "SUBCUTANEOUS",
    "EXLOT": "SDS580-359",
    "EPOCH": "TREATMENT",
    "EXSTDTC": "2013-09-30",
    "EXENDTC": "2013-09-30",
    "EXSTDY": 33.0,
    "EXENDY": 33.0
  },
  {
    "STUDYID": "CDISCPILOT01",
    "DOMAIN": "EX",
    "USUBJID": "CDISC003",
    "SPDEVID": "DEV0003",
    "EXSEQ": 34.0,
    "EXTRT": "ZANOMALINE",
    "EXDOSE": 81.0,
    "EXDOSU": "mg",
    "EXDOSFRM": "INJECTION",
    "EXDOSFRQ": "QD",
    "EXROUTE": "SUBCUTANEOUS",
    "EXLOT": "SDS580-359",
    "EPOCH": "TREATMENT",
    "EXSTDTC": "2013-10-01",
    "EXENDTC": "2013-10-01",
    "EXSTDY": 34.0,
    "EXENDY": 34.0
  },
  {
    "STUDYID": "CDISCPILOT01",
    "DOMAIN": "EX",
    "USUBJID": "CDISC003",
    "SPDEVID": "DEV0003",
    "EXSEQ": 35.0,
    "EXTRT": "ZANOMALINE",
    "EXDOSE": 81.0,
    "EXDOSU": "mg",
    "EXDOSFRM": "INJECTION",
    "EXDOSFRQ": "QD",
    "EXROUTE": "SUBCUTANEOUS",
    "EXLOT": "SDS580-359",
    "EPOCH": "TREATMENT",
    "EXSTDTC": "2013-10-02",
    "EXENDTC": "2013-10-02",
    "EXSTDY": 35.0,
    "EXENDY": 35.0
  },
  {
    "STUDYID": "CDISCPILOT01",
    "DOMAIN": "EX",
    "USUBJID": "CDISC003",
    "SPDEVID": "DEV0003",
    "EXSEQ": 36.0,
    "EXTRT": "ZANOMALINE",
    "EXDOSE": 81.0,
    "EXDOSU": "mg",
    "EXDOSFRM": "INJECTION",
    "EXDOSFRQ": "QD",
    "EXROUTE": "SUBCUTANEOUS",
    "EXLOT": "SDS580-359",
    "EPOCH": "TREATMENT",
    "EXSTDTC": "2013-10-03",
    "EXENDTC": "2013-10-03",
    "EXSTDY": 36.0,
    "EXENDY": 36.0
  },
  {
    "STUDYID": "CDISCPILOT01",
    "DOMAIN": "EX",
    "USUBJID": "CDISC003",
    "SPDEVID": "DEV0003",
    "EXSEQ": 37.0,
    "EXTRT": "ZANOMALINE",
    "EXDOSE": 81.0,
    "EXDOSU": "mg",
    "EXDOSFRM": "INJECTION",
    "EXDOSFRQ": "QD",
    "EXROUTE": "SUBCUTANEOUS",
    "EXLOT": "SDS580-359",
    "EPOCH": "TREATMENT",
    "EXSTDTC": "2013-10-04",
    "EXENDTC": "2013-10-04",
    "EXSTDY": 37.0,
    "EXENDY": 37.0
  },
  {
    "STUDYID": "CDISCPILOT01",
    "DOMAIN": "EX",
    "USUBJID": "CDISC003",
    "SPDEVID": "DEV0003",
    "EXSEQ": 38.0,
    "EXTRT": "ZANOMALINE",
    "EXDOSE": 81.0,
    "EXDOSU": "mg",
    "EXDOSFRM": "INJECTION",
    "EXDOSFRQ": "QD",
    "EXROUTE": "SUBCUTANEOUS",
    "EXLOT": "SDS580-359",
    "EPOCH": "TREATMENT",
    "EXSTDTC": "2013-10-05",
    "EXENDTC": "2013-10-05",
    "EXSTDY": 38.0,
    "EXENDY": 38.0
  },
  {
    "STUDYID": "CDISCPILOT01",
    "DOMAIN": "EX",
    "USUBJID": "CDISC003",
    "SPDEVID": "DEV0003",
    "EXSEQ": 39.0,
    "EXTRT": "ZANOMALINE",
    "EXDOSE": 81.0,
    "EXDOSU": "mg",
    "EXDOSFRM": "INJECTION",
    "EXDOSFRQ": "QD",
    "EXROUTE": "SUBCUTANEOUS",
    "EXLOT": "SDS580-359",
    "EPOCH": "TREATMENT",
    "EXSTDTC": "2013-10-06",
    "EXENDTC": "2013-10-06",
    "EXSTDY": 39.0,
    "EXENDY": 39.0
  },
  {
    "STUDYID": "CDISCPILOT01",
    "DOMAIN": "EX",
    "USUBJID": "CDISC003",
    "SPDEVID": "DEV0003",
    "EXSEQ": 40.0,
    "EXTRT": "ZANOMALINE",
    "EXDOSE": 81.0,
    "EXDOSU": "mg",
    "EXDOSFRM": "INJECTION",
    "EXDOSFRQ": "QD",
    "EXROUTE": "SUBCUTANEOUS",
    "EXLOT": "SDS580-359",
    "EPOCH": "TREATMENT",
    "EXSTDTC": "2013-10-07",
    "EXENDTC": "2013-10-07",
    "EXSTDY": 40.0,
    "EXENDY": 40.0
  },
  {
    "STUDYID": "CDISCPILOT01",
    "DOMAIN": "EX",
    "USUBJID": "CDISC003",
    "SPDEVID": "DEV0003",
    "EXSEQ": 41.0,
    "EXTRT": "ZANOMALINE",
    "EXDOSE": 81.0,
    "EXDOSU": "mg",
    "EXDOSFRM": "INJECTION",
    "EXDOSFRQ": "QD",
    "EXROUTE": "SUBCUTANEOUS",
    "EXLOT": "SDS580-359",
    "EPOCH": "TREATMENT",
    "EXSTDTC": "2013-10-08",
    "EXENDTC": "2013-10-08",
    "EXSTDY": 41.0,
    "EXENDY": 41.0
  },
  {
    "STUDYID": "CDISCPILOT01",
    "DOMAIN": "EX",
    "USUBJID": "CDISC003",
    "SPDEVID": "DEV0003",
    "EXSEQ": 42.0,
    "EXTRT": "ZANOMALINE",
    "EXDOSE": 81.0,
    "EXDOSU": "mg",
    "EXDOSFRM": "INJECTION",
    "EXDOSFRQ": "QD",
    "EXROUTE": "SUBCUTANEOUS",
    "EXLOT": "SDS580-359",
    "EPOCH": "TREATMENT",
    "EXSTDTC": "2013-10-09",
    "EXENDTC": "2013-10-09",
    "EXSTDY": 42.0,
    "EXENDY": 42.0
  },
  {
    "STUDYID": "CDISCPILOT01",
    "DOMAIN": "EX",
    "USUBJID": "CDISC003",
    "SPDEVID": "DEV0003",
    "EXSEQ": 43.0,
    "EXTRT": "ZANOMALINE",
    "EXDOSE": 81.0,
    "EXDOSU": "mg",
    "EXDOSFRM": "INJECTION",
    "EXDOSFRQ": "QD",
    "EXROUTE": "SUBCUTANEOUS",
    "EXLOT": "SDS580-359",
    "EPOCH": "TREATMENT",
    "EXSTDTC": "2013-10-10",
    "EXENDTC": "2013-10-10",
    "EXSTDY": 43.0,
    "EXENDY": 43.0
  },
  {
    "STUDYID": "CDISCPILOT01",
    "DOMAIN": "EX",
    "USUBJID": "CDISC003",
    "SPDEVID": "DEV0003",
    "EXSEQ": 44.0,
    "EXTRT": "ZANOMALINE",
    "EXDOSE": 81.0,
    "EXDOSU": "mg",
    "EXDOSFRM": "INJECTION",
    "EXDOSFRQ": "QD",
    "EXROUTE": "SUBCUTANEOUS",
    "EXLOT": "SDS580-359",
    "EPOCH": "TREATMENT",
    "EXSTDTC": "2013-10-11",
    "EXENDTC": "2013-10-11",
    "EXSTDY": 44.0,
    "EXENDY": 44.0
  },
  {
    "STUDYID": "CDISCPILOT01",
    "DOMAIN": "EX",
    "USUBJID": "CDISC003",
    "SPDEVID": "DEV0003",
    "EXSEQ": 45.0,
    "EXTRT": "ZANOMALINE",
    "EXDOSE": 81.0,
    "EXDOSU": "mg",
    "EXDOSFRM": "INJECTION",
    "EXDOSFRQ": "QD",
    "EXROUTE": "SUBCUTANEOUS",
    "EXLOT": "SDS580-359",
    "EPOCH": "TREATMENT",
    "EXSTDTC": "2013-10-12",
    "EXENDTC": "2013-10-12",
    "EXSTDY": 45.0,
    "EXENDY": 45.0
  },
  {
    "STUDYID": "CDISCPILOT01",
    "DOMAIN": "EX",
    "USUBJID": "CDISC003",
    "SPDEVID": "DEV0003",
    "EXSEQ": 46.0,
    "EXTRT": "ZANOMALINE",
    "EXDOSE": 81.0,
    "EXDOSU": "mg",
    "EXDOSFRM": "INJECTION",
    "EXDOSFRQ": "QD",
    "EXROUTE": "SUBCUTANEOUS",
    "EXLOT": "SDS580-359",
    "EPOCH": "TREATMENT",
    "EXSTDTC": "2013-10-13",
    "EXENDTC": "2013-10-13",
    "EXSTDY": 46.0,
    "EXENDY": 46.0
  },
  {
    "STUDYID": "CDISCPILOT01",
    "DOMAIN": "EX",
    "USUBJID": "CDISC003",
    "SPDEVID": "DEV0003",
    "EXSEQ": 47.0,
    "EXTRT": "ZANOMALINE",
    "EXDOSE": 81.0,
    "EXDOSU": "mg",
    "EXDOSFRM": "INJECTION",
    "EXDOSFRQ": "QD",
    "EXROUTE": "SUBCUTANEOUS",
    "EXLOT": "SDS580-359",
    "EPOCH": "TREATMENT",
    "EXSTDTC": "2013-10-14",
    "EXENDTC": "2013-10-14",
    "EXSTDY": 47.0,
    "EXENDY": 47.0
  },
  {
    "STUDYID": "CDISCPILOT01",
    "DOMAIN": "EX",
    "USUBJID": "CDISC003",
    "SPDEVID": "DEV0003",
    "EXSEQ": 48.0,
    "EXTRT": "ZANOMALINE",
    "EXDOSE": 81.0,
    "EXDOSU": "mg",
    "EXDOSFRM": "INJECTION",
    "EXDOSFRQ": "QD",
    "EXROUTE": "SUBCUTANEOUS",
    "EXLOT": "SDS580-359",
    "EPOCH": "TREATMENT",
    "EXSTDTC": "2013-10-15",
    "EXENDTC": "2013-10-15",
    "EXSTDY": 48.0,
    "EXENDY": 48.0
  },
  {
    "STUDYID": "CDISCPILOT01",
    "DOMAIN": "EX",
    "USUBJID": "CDISC003",
    "SPDEVID": "DEV0003",
    "EXSEQ": 49.0,
    "EXTRT": "ZANOMALINE",
    "EXDOSE": 81.0,
    "EXDOSU": "mg",
    "EXDOSFRM": "INJECTION",
    "EXDOSFRQ": "QD",
    "EXROUTE": "SUBCUTANEOUS",
    "EXLOT": "SDS580-359",
    "EPOCH": "TREATMENT",
    "EXSTDTC": "2013-10-16",
    "EXENDTC": "2013-10-16",
    "EXSTDY": 49.0,
    "EXENDY": 49.0
  },
  {
    "STUDYID": "CDISCPILOT01",
    "DOMAIN": "EX",
    "USUBJID": "CDISC003",
    "SPDEVID": "DEV0003",
    "EXSEQ": 50.0,
    "EXTRT": "ZANOMALINE",
    "EXDOSE": 81.0,
    "EXDOSU": "mg",
    "EXDOSFRM": "INJECTION",
    "EXDOSFRQ": "QD",
    "EXROUTE": "SUBCUTANEOUS",
    "EXLOT": "SDS580-359",
    "EPOCH": "TREATMENT",
    "EXSTDTC": "2013-10-17",
    "EXENDTC": "2013-10-17",
    "EXSTDY": 50.0,
    "EXENDY": 50.0
  },
  {
    "STUDYID": "CDISCPILOT01",
    "DOMAIN": "EX",
    "USUBJID": "CDISC003",
    "SPDEVID": "DEV0003",
    "EXSEQ": 51.0,
    "EXTRT": "ZANOMALINE",
    "EXDOSE": 81.0,
    "EXDOSU": "mg",
    "EXDOSFRM": "INJECTION",
    "EXDOSFRQ": "QD",
    "EXROUTE": "SUBCUTANEOUS",
    "EXLOT": "SDS580-359",
    "EPOCH": "TREATMENT",
    "EXSTDTC": "2013-10-18",
    "EXENDTC": "2013-10-18",
    "EXSTDY": 51.0,
    "EXENDY": 51.0
  },
  {
    "STUDYID": "CDISCPILOT01",
    "DOMAIN": "EX",
    "USUBJID": "CDISC003",
    "SPDEVID": "DEV0003",
    "EXSEQ": 52.0,
    "EXTRT": "ZANOMALINE",
    "EXDOSE": 81.0,
    "EXDOSU": "mg",
    "EXDOSFRM": "INJECTION",
    "EXDOSFRQ": "QD",
    "EXROUTE": "SUBCUTANEOUS",
    "EXLOT": "SDS580-359",
    "EPOCH": "TREATMENT",
    "EXSTDTC": "2013-10-19",
    "EXENDTC": "2013-10-19",
    "EXSTDY": 52.0,
    "EXENDY": 52.0
  },
  {
    "STUDYID": "CDISCPILOT01",
    "DOMAIN": "EX",
    "USUBJID": "CDISC003",
    "SPDEVID": "DEV0003",
    "EXSEQ": 53.0,
    "EXTRT": "ZANOMALINE",
    "EXDOSE": 81.0,
    "EXDOSU": "mg",
    "EXDOSFRM": "INJECTION",
    "EXDOSFRQ": "QD",
    "EXROUTE": "SUBCUTANEOUS",
    "EXLOT": "SDS580-359",
    "EPOCH": "TREATMENT",
    "EXSTDTC": "2013-10-20",
    "EXENDTC": "2013-10-20",
    "EXSTDY": 53.0,
    "EXENDY": 53.0
  },
  {
    "STUDYID": "CDISCPILOT01",
    "DOMAIN": "EX",
    "USUBJID": "CDISC003",
    "SPDEVID": "DEV0003",
    "EXSEQ": 54.0,
    "EXTRT": "ZANOMALINE",
    "EXDOSE": 81.0,
    "EXDOSU": "mg",
    "EXDOSFRM": "INJECTION",
    "EXDOSFRQ": "QD",
    "EXROUTE": "SUBCUTANEOUS",
    "EXLOT": "SDS580-359",
    "EPOCH": "TREATMENT",
    "EXSTDTC": "2013-10-21",
    "EXENDTC": "2013-10-21",
    "EXSTDY": 54.0,
    "EXENDY": 54.0
  },
  {
    "STUDYID": "CDISCPILOT01",
    "DOMAIN": "EX",
    "USUBJID": "CDISC003",
    "SPDEVID": "DEV0003",
    "EXSEQ": 55.0,
    "EXTRT": "ZANOMALINE",
    "EXDOSE": 81.0,
    "EXDOSU": "mg",
    "EXDOSFRM": "INJECTION",
    "EXDOSFRQ": "QD",
    "EXROUTE": "SUBCUTANEOUS",
    "EXLOT": "SDS580-359",
    "EPOCH": "TREATMENT",
    "EXSTDTC": "2013-10-22",
    "EXENDTC": "2013-10-22",
    "EXSTDY": 55.0,
    "EXENDY": 55.0
  },
  {
    "STUDYID": "CDISCPILOT01",
    "DOMAIN": "EX",
    "USUBJID": "CDISC003",
    "SPDEVID": "DEV0003",
    "EXSEQ": 56.0,
    "EXTRT": "ZANOMALINE",
    "EXDOSE": 81.0,
    "EXDOSU": "mg",
    "EXDOSFRM": "INJECTION",
    "EXDOSFRQ": "QD",
    "EXROUTE": "SUBCUTANEOUS",
    "EXLOT": "SDS580-359",
    "EPOCH": "TREATMENT",
    "EXSTDTC": "2013-10-23",
    "EXENDTC": "2013-10-23",
    "EXSTDY": 56.0,
    "EXENDY": 56.0
  },
  {
    "STUDYID": "CDISCPILOT01",
    "DOMAIN": "EX",
    "USUBJID": "CDISC003",
    "SPDEVID": "DEV0003",
    "EXSEQ": 57.0,
    "EXTRT": "ZANOMALINE",
    "EXDOSE": 81.0,
    "EXDOSU": "mg",
    "EXDOSFRM": "INJECTION",
    "EXDOSFRQ": "QD",
    "EXROUTE": "SUBCUTANEOUS",
    "EXLOT": "SDS580-359",
    "EPOCH": "TREATMENT",
    "EXSTDTC": "2013-10-24",
    "EXENDTC": "2013-10-24",
    "EXSTDY": 57.0,
    "EXENDY": 57.0
  },
  {
    "STUDYID": "CDISCPILOT01",
    "DOMAIN": "EX",
    "USUBJID": "CDISC003",
    "SPDEVID": "DEV0003",
    "EXSEQ": 58.0,
    "EXTRT": "ZANOMALINE",
    "EXDOSE": 81.0,
    "EXDOSU": "mg",
    "EXDOSFRM": "INJECTION",
    "EXDOSFRQ": "QD",
    "EXROUTE": "SUBCUTANEOUS",
    "EXLOT": "SDS580-359",
    "EPOCH": "TREATMENT",
    "EXSTDTC": "2013-10-25",
    "EXENDTC": "2013-10-25",
    "EXSTDY": 58.0,
    "EXENDY": 58.0
  },
  {
    "STUDYID": "CDISCPILOT01",
    "DOMAIN": "EX",
    "USUBJID": "CDISC003",
    "SPDEVID": "DEV0003",
    "EXSEQ": 59.0,
    "EXTRT": "ZANOMALINE",
    "EXDOSE": 81.0,
    "EXDOSU": "mg",
    "EXDOSFRM": "INJECTION",
    "EXDOSFRQ": "QD",
    "EXROUTE": "SUBCUTANEOUS",
    "EXLOT": "SDS580-359",
    "EPOCH": "TREATMENT",
    "EXSTDTC": "2013-10-26",
    "EXENDTC": "2013-10-26",
    "EXSTDY": 59.0,
    "EXENDY": 59.0
  },
  {
    "STUDYID": "CDISCPILOT01",
    "DOMAIN": "EX",
    "USUBJID": "CDISC003",
    "SPDEVID": "DEV0003",
    "EXSEQ": 60.0,
    "EXTRT": "ZANOMALINE",
    "EXDOSE": 81.0,
    "EXDOSU": "mg",
    "EXDOSFRM": "INJECTION",
    "EXDOSFRQ": "QD",
    "EXROUTE": "SUBCUTANEOUS",
    "EXLOT": "SDS580-359",
    "EPOCH": "TREATMENT",
    "EXSTDTC": "2013-10-27",
    "EXENDTC": "2013-10-27",
    "EXSTDY": 60.0,
    "EXENDY": 60.0
  },
  {
    "STUDYID": "CDISCPILOT01",
    "DOMAIN": "EX",
    "USUBJID": "CDISC003",
    "SPDEVID": "DEV0003",
    "EXSEQ": 61.0,
    "EXTRT": "ZANOMALINE",
    "EXDOSE": 81.0,
    "EXDOSU": "mg",
    "EXDOSFRM": "INJECTION",
    "EXDOSFRQ": "QD",
    "EXROUTE": "SUBCUTANEOUS",
    "EXLOT": "SDS580-359",
    "EPOCH": "TREATMENT",
    "EXSTDTC": "2013-10-28",
    "EXENDTC": "2013-10-28",
    "EXSTDY": 61.0,
    "EXENDY": 61.0
  },
  {
    "STUDYID": "CDISCPILOT01",
    "DOMAIN": "EX",
    "USUBJID": "CDISC003",
    "SPDEVID": "DEV0003",
    "EXSEQ": 62.0,
    "EXTRT": "ZANOMALINE",
    "EXDOSE": 81.0,
    "EXDOSU": "mg",
    "EXDOSFRM": "INJECTION",
    "EXDOSFRQ": "QD",
    "EXROUTE": "SUBCUTANEOUS",
    "EXLOT": "SDS580-359",
    "EPOCH": "TREATMENT",
    "EXSTDTC": "2013-10-29",
    "EXENDTC": "2013-10-29",
    "EXSTDY": 62.0,
    "EXENDY": 62.0
  },
  {
    "STUDYID": "CDISCPILOT01",
    "DOMAIN": "EX",
    "USUBJID": "CDISC003",
    "SPDEVID": "DEV0003",
    "EXSEQ": 63.0,
    "EXTRT": "ZANOMALINE",
    "EXDOSE": 81.0,
    "EXDOSU": "mg",
    "EXDOSFRM": "INJECTION",
    "EXDOSFRQ": "QD",
    "EXROUTE": "SUBCUTANEOUS",
    "EXLOT": "SDS580-359",
    "EPOCH": "TREATMENT",
    "EXSTDTC": "2013-10-30",
    "EXENDTC": "2013-10-30",
    "EXSTDY": 63.0,
    "EXENDY": 63.0
  },
  {
    "STUDYID": "CDISCPILOT01",
    "DOMAIN": "EX",
    "USUBJID": "CDISC003",
    "SPDEVID": "DEV0003",
    "EXSEQ": 64.0,
    "EXTRT": "ZANOMALINE",
    "EXDOSE": 81.0,
    "EXDOSU": "mg",
    "EXDOSFRM": "INJECTION",
    "EXDOSFRQ": "QD",
    "EXROUTE": "SUBCUTANEOUS",
    "EXLOT": "SDS580-359",
    "EPOCH": "TREATMENT",
    "EXSTDTC": "2013-10-31",
    "EXENDTC": "2013-10-31",
    "EXSTDY": 64.0,
    "EXENDY": 64.0
  },
  {
    "STUDYID": "CDISCPILOT01",
    "DOMAIN": "EX",
    "USUBJID": "CDISC003",
    "SPDEVID": "DEV0003",
    "EXSEQ": 65.0,
    "EXTRT": "ZANOMALINE",
    "EXDOSE": 81.0,
    "EXDOSU": "mg",
    "EXDOSFRM": "INJECTION",
    "EXDOSFRQ": "QD",
    "EXROUTE": "SUBCUTANEOUS",
    "EXLOT": "SDS580-359",
    "EPOCH": "TREATMENT",
    "EXSTDTC": "2013-11-01",
    "EXENDTC": "2013-11-01",
    "EXSTDY": 65.0,
    "EXENDY": 65.0
  },
  {
    "STUDYID": "CDISCPILOT01",
    "DOMAIN": "EX",
    "USUBJID": "CDISC003",
    "SPDEVID": "DEV0003",
    "EXSEQ": 66.0,
    "EXTRT": "ZANOMALINE",
    "EXDOSE": 81.0,
    "EXDOSU": "mg",
    "EXDOSFRM": "INJECTION",
    "EXDOSFRQ": "QD",
    "EXROUTE": "SUBCUTANEOUS",
    "EXLOT": "SDS580-359",
    "EPOCH": "TREATMENT",
    "EXSTDTC": "2013-11-02",
    "EXENDTC": "2013-11-02",
    "EXSTDY": 66.0,
    "EXENDY": 66.0
  },
  {
    "STUDYID": "CDISCPILOT01",
    "DOMAIN": "EX",
    "USUBJID": "CDISC003",
    "SPDEVID": "DEV0003",
    "EXSEQ": 67.0,
    "EXTRT": "ZANOMALINE",
    "EXDOSE": 81.0,
    "EXDOSU": "mg",
    "EXDOSFRM": "INJECTION",
    "EXDOSFRQ": "QD",
    "EXROUTE": "SUBCUTANEOUS",
    "EXLOT": "SDS580-359",
    "EPOCH": "TREATMENT",
    "EXSTDTC": "2013-11-03",
    "EXENDTC": "2013-11-03",
    "EXSTDY": 67.0,
    "EXENDY": 67.0
  },
  {
    "STUDYID": "CDISCPILOT01",
    "DOMAIN": "EX",
    "USUBJID": "CDISC003",
    "SPDEVID": "DEV0003",
    "EXSEQ": 68.0,
    "EXTRT": "ZANOMALINE",
    "EXDOSE": 81.0,
    "EXDOSU": "mg",
    "EXDOSFRM": "INJECTION",
    "EXDOSFRQ": "QD",
    "EXROUTE": "SUBCUTANEOUS",
    "EXLOT": "SDS580-359",
    "EPOCH": "TREATMENT",
    "EXSTDTC": "2013-11-04",
    "EXENDTC": "2013-11-04",
    "EXSTDY": 68.0,
    "EXENDY": 68.0
  },
  {
    "STUDYID": "CDISCPILOT01",
    "DOMAIN": "EX",
    "USUBJID": "CDISC003",
    "SPDEVID": "DEV0003",
    "EXSEQ": 69.0,
    "EXTRT": "ZANOMALINE",
    "EXDOSE": 81.0,
    "EXDOSU": "mg",
    "EXDOSFRM": "INJECTION",
    "EXDOSFRQ": "QD",
    "EXROUTE": "SUBCUTANEOUS",
    "EXLOT": "SDS580-359",
    "EPOCH": "TREATMENT",
    "EXSTDTC": "2013-11-05",
    "EXENDTC": "2013-11-05",
    "EXSTDY": 69.0,
    "EXENDY": 69.0
  },
  {
    "STUDYID": "CDISCPILOT01",
    "DOMAIN": "EX",
    "USUBJID": "CDISC004",
    "SPDEVID": "DEV0004",
    "EXSEQ": 1.0,
    "EXTRT": "PLACEBO",
    "EXDOSE": 5.397605346934028e-79,
    "EXDOSU": "mg",
    "EXDOSFRM": "INJECTION",
    "EXDOSFRQ": "QD",
    "EXROUTE": "SUBCUTANEOUS",
    "EXLOT": "SDS580-485",
    "EPOCH": "TREATMENT",
    "EXSTDTC": "2013-10-08",
    "EXENDTC": "2013-10-08",
    "EXSTDY": 1.0,
    "EXENDY": 1.0
  },
  {
    "STUDYID": "CDISCPILOT01",
    "DOMAIN": "EX",
    "USUBJID": "CDISC004",
    "SPDEVID": "DEV0004",
    "EXSEQ": 2.0,
    "EXTRT": "PLACEBO",
    "EXDOSE": 5.397605346934028e-79,
    "EXDOSU": "mg",
    "EXDOSFRM": "INJECTION",
    "EXDOSFRQ": "QD",
    "EXROUTE": "SUBCUTANEOUS",
    "EXLOT": "SDS580-485",
    "EPOCH": "TREATMENT",
    "EXSTDTC": "2013-10-09",
    "EXENDTC": "2013-10-09",
    "EXSTDY": 2.0,
    "EXENDY": 2.0
  },
  {
    "STUDYID": "CDISCPILOT01",
    "DOMAIN": "EX",
    "USUBJID": "CDISC004",
    "SPDEVID": "DEV0004",
    "EXSEQ": 3.0,
    "EXTRT": "PLACEBO",
    "EXDOSE": 5.397605346934028e-79,
    "EXDOSU": "mg",
    "EXDOSFRM": "INJECTION",
    "EXDOSFRQ": "QD",
    "EXROUTE": "SUBCUTANEOUS",
    "EXLOT": "SDS580-485",
    "EPOCH": "TREATMENT",
    "EXSTDTC": "2013-10-10",
    "EXENDTC": "2013-10-10",
    "EXSTDY": 3.0,
    "EXENDY": 3.0
  },
  {
    "STUDYID": "CDISCPILOT01",
    "DOMAIN": "EX",
    "USUBJID": "CDISC004",
    "SPDEVID": "DEV0004",
    "EXSEQ": 4.0,
    "EXTRT": "PLACEBO",
    "EXDOSE": 5.397605346934028e-79,
    "EXDOSU": "mg",
    "EXDOSFRM": "INJECTION",
    "EXDOSFRQ": "QD",
    "EXROUTE": "SUBCUTANEOUS",
    "EXLOT": "SDS580-485",
    "EPOCH": "TREATMENT",
    "EXSTDTC": "2013-10-11",
    "EXENDTC": "2013-10-11",
    "EXSTDY": 4.0,
    "EXENDY": 4.0
  },
  {
    "STUDYID": "CDISCPILOT01",
    "DOMAIN": "EX",
    "USUBJID": "CDISC004",
    "SPDEVID": "DEV0004",
    "EXSEQ": 5.0,
    "EXTRT": "PLACEBO",
    "EXDOSE": 5.397605346934028e-79,
    "EXDOSU": "mg",
    "EXDOSFRM": "INJECTION",
    "EXDOSFRQ": "QD",
    "EXROUTE": "SUBCUTANEOUS",
    "EXLOT": "SDS580-485",
    "EPOCH": "TREATMENT",
    "EXSTDTC": "2013-10-12",
    "EXENDTC": "2013-10-12",
    "EXSTDY": 5.0,
    "EXENDY": 5.0
  },
  {
    "STUDYID": "CDISCPILOT01",
    "DOMAIN": "EX",
    "USUBJID": "CDISC004",
    "SPDEVID": "DEV0004",
    "EXSEQ": 6.0,
    "EXTRT": "PLACEBO",
    "EXDOSE": 5.397605346934028e-79,
    "EXDOSU": "mg",
    "EXDOSFRM": "INJECTION",
    "EXDOSFRQ": "QD",
    "EXROUTE": "SUBCUTANEOUS",
    "EXLOT": "SDS580-485",
    "EPOCH": "TREATMENT",
    "EXSTDTC": "2013-10-13",
    "EXENDTC": "2013-10-13",
    "EXSTDY": 6.0,
    "EXENDY": 6.0
  },
  {
    "STUDYID": "CDISCPILOT01",
    "DOMAIN": "EX",
    "USUBJID": "CDISC004",
    "SPDEVID": "DEV0004",
    "EXSEQ": 7.0,
    "EXTRT": "PLACEBO",
    "EXDOSE": 5.397605346934028e-79,
    "EXDOSU": "mg",
    "EXDOSFRM": "INJECTION",
    "EXDOSFRQ": "QD",
    "EXROUTE": "SUBCUTANEOUS",
    "EXLOT": "SDS580-485",
    "EPOCH": "TREATMENT",
    "EXSTDTC": "2013-10-14",
    "EXENDTC": "2013-10-14",
    "EXSTDY": 7.0,
    "EXENDY": 7.0
  },
  {
    "STUDYID": "CDISCPILOT01",
    "DOMAIN": "EX",
    "USUBJID": "CDISC004",
    "SPDEVID": "DEV0004",
    "EXSEQ": 8.0,
    "EXTRT": "PLACEBO",
    "EXDOSE": 5.397605346934028e-79,
    "EXDOSU": "mg",
    "EXDOSFRM": "INJECTION",
    "EXDOSFRQ": "QD",
    "EXROUTE": "SUBCUTANEOUS",
    "EXLOT": "SDS580-485",
    "EPOCH": "TREATMENT",
    "EXSTDTC": "2013-10-15",
    "EXENDTC": "2013-10-15",
    "EXSTDY": 8.0,
    "EXENDY": 8.0
  },
  {
    "STUDYID": "CDISCPILOT01",
    "DOMAIN": "EX",
    "USUBJID": "CDISC004",
    "SPDEVID": "DEV0004",
    "EXSEQ": 9.0,
    "EXTRT": "PLACEBO",
    "EXDOSE": 5.397605346934028e-79,
    "EXDOSU": "mg",
    "EXDOSFRM": "INJECTION",
    "EXDOSFRQ": "QD",
    "EXROUTE": "SUBCUTANEOUS",
    "EXLOT": "SDS580-485",
    "EPOCH": "TREATMENT",
    "EXSTDTC": "2013-10-16",
    "EXENDTC": "2013-10-16",
    "EXSTDY": 9.0,
    "EXENDY": 9.0
  },
  {
    "STUDYID": "CDISCPILOT01",
    "DOMAIN": "EX",
    "USUBJID": "CDISC004",
    "SPDEVID": "DEV0004",
    "EXSEQ": 10.0,
    "EXTRT": "PLACEBO",
    "EXDOSE": 5.397605346934028e-79,
    "EXDOSU": "mg",
    "EXDOSFRM": "INJECTION",
    "EXDOSFRQ": "QD",
    "EXROUTE": "SUBCUTANEOUS",
    "EXLOT": "SDS580-485",
    "EPOCH": "TREATMENT",
    "EXSTDTC": "2013-10-17",
    "EXENDTC": "2013-10-17",
    "EXSTDY": 10.0,
    "EXENDY": 10.0
  },
  {
    "STUDYID": "CDISCPILOT01",
    "DOMAIN": "EX",
    "USUBJID": "CDISC004",
    "SPDEVID": "DEV0004",
    "EXSEQ": 11.0,
    "EXTRT": "PLACEBO",
    "EXDOSE": 5.397605346934028e-79,
    "EXDOSU": "mg",
    "EXDOSFRM": "INJECTION",
    "EXDOSFRQ": "QD",
    "EXROUTE": "SUBCUTANEOUS",
    "EXLOT": "SDS580-485",
    "EPOCH": "TREATMENT",
    "EXSTDTC": "2013-10-18",
    "EXENDTC": "2013-10-18",
    "EXSTDY": 11.0,
    "EXENDY": 11.0
  },
  {
    "STUDYID": "CDISCPILOT01",
    "DOMAIN": "EX",
    "USUBJID": "CDISC004",
    "SPDEVID": "DEV0004",
    "EXSEQ": 12.0,
    "EXTRT": "PLACEBO",
    "EXDOSE": 5.397605346934028e-79,
    "EXDOSU": "mg",
    "EXDOSFRM": "INJECTION",
    "EXDOSFRQ": "QD",
    "EXROUTE": "SUBCUTANEOUS",
    "EXLOT": "SDS580-485",
    "EPOCH": "TREATMENT",
    "EXSTDTC": "2013-10-19",
    "EXENDTC": "2013-10-19",
    "EXSTDY": 12.0,
    "EXENDY": 12.0
  },
  {
    "STUDYID": "CDISCPILOT01",
    "DOMAIN": "EX",
    "USUBJID": "CDISC004",
    "SPDEVID": "DEV0004",
    "EXSEQ": 13.0,
    "EXTRT": "PLACEBO",
    "EXDOSE": 5.397605346934028e-79,
    "EXDOSU": "mg",
    "EXDOSFRM": "INJECTION",
    "EXDOSFRQ": "QD",
    "EXROUTE": "SUBCUTANEOUS",
    "EXLOT": "SDS580-485",
    "EPOCH": "TREATMENT",
    "EXSTDTC": "2013-10-20",
    "EXENDTC": "2013-10-20",
    "EXSTDY": 13.0,
    "EXENDY": 13.0
  },
  {
    "STUDYID": "CDISCPILOT01",
    "DOMAIN": "EX",
    "USUBJID": "CDISC004",
    "SPDEVID": "DEV0004",
    "EXSEQ": 14.0,
    "EXTRT": "PLACEBO",
    "EXDOSE": 5.397605346934028e-79,
    "EXDOSU": "mg",
    "EXDOSFRM": "INJECTION",
    "EXDOSFRQ": "QD",
    "EXROUTE": "SUBCUTANEOUS",
    "EXLOT": "SDS580-485",
    "EPOCH": "TREATMENT",
    "EXSTDTC": "2013-10-21",
    "EXENDTC": "2013-10-21",
    "EXSTDY": 14.0,
    "EXENDY": 14.0
  },
  {
    "STUDYID": "CDISCPILOT01",
    "DOMAIN": "EX",
    "USUBJID": "CDISC004",
    "SPDEVID": "DEV0004",
    "EXSEQ": 15.0,
    "EXTRT": "PLACEBO",
    "EXDOSE": 5.397605346934028e-79,
    "EXDOSU": "mg",
    "EXDOSFRM": "INJECTION",
    "EXDOSFRQ": "QD",
    "EXROUTE": "SUBCUTANEOUS",
    "EXLOT": "SDS580-485",
    "EPOCH": "TREATMENT",
    "EXSTDTC": "2013-10-22",
    "EXENDTC": "2013-10-22",
    "EXSTDY": 15.0,
    "EXENDY": 15.0
  },
  {
    "STUDYID": "CDISCPILOT01",
    "DOMAIN": "EX",
    "USUBJID": "CDISC004",
    "SPDEVID": "DEV0004",
    "EXSEQ": 16.0,
    "EXTRT": "PLACEBO",
    "EXDOSE": 5.397605346934028e-79,
    "EXDOSU": "mg",
    "EXDOSFRM": "INJECTION",
    "EXDOSFRQ": "QD",
    "EXROUTE": "SUBCUTANEOUS",
    "EXLOT": "SDS580-485",
    "EPOCH": "TREATMENT",
    "EXSTDTC": "2013-10-23",
    "EXENDTC": "2013-10-23",
    "EXSTDY": 16.0,
    "EXENDY": 16.0
  },
  {
    "STUDYID": "CDISCPILOT01",
    "DOMAIN": "EX",
    "USUBJID": "CDISC004",
    "SPDEVID": "DEV0004",
    "EXSEQ": 17.0,
    "EXTRT": "PLACEBO",
    "EXDOSE": 5.397605346934028e-79,
    "EXDOSU": "mg",
    "EXDOSFRM": "INJECTION",
    "EXDOSFRQ": "QD",
    "EXROUTE": "SUBCUTANEOUS",
    "EXLOT": "SDS580-485",
    "EPOCH": "TREATMENT",
    "EXSTDTC": "2013-10-24",
    "EXENDTC": "2013-10-24",
    "EXSTDY": 17.0,
    "EXENDY": 17.0
  },
  {
    "STUDYID": "CDISCPILOT01",
    "DOMAIN": "EX",
    "USUBJID": "CDISC004",
    "SPDEVID": "DEV0004",
    "EXSEQ": 18.0,
    "EXTRT": "PLACEBO",
    "EXDOSE": 5.397605346934028e-79,
    "EXDOSU": "mg",
    "EXDOSFRM": "INJECTION",
    "EXDOSFRQ": "QD",
    "EXROUTE": "SUBCUTANEOUS",
    "EXLOT": "SDS580-485",
    "EPOCH": "TREATMENT",
    "EXSTDTC": "2013-10-25",
    "EXENDTC": "2013-10-25",
    "EXSTDY": 18.0,
    "EXENDY": 18.0
  },
  {
    "STUDYID": "CDISCPILOT01",
    "DOMAIN": "EX",
    "USUBJID": "CDISC004",
    "SPDEVID": "DEV0004",
    "EXSEQ": 19.0,
    "EXTRT": "PLACEBO",
    "EXDOSE": 5.397605346934028e-79,
    "EXDOSU": "mg",
    "EXDOSFRM": "INJECTION",
    "EXDOSFRQ": "QD",
    "EXROUTE": "SUBCUTANEOUS",
    "EXLOT": "SDS580-485",
    "EPOCH": "TREATMENT",
    "EXSTDTC": "2013-10-26",
    "EXENDTC": "2013-10-26",
    "EXSTDY": 19.0,
    "EXENDY": 19.0
  },
  {
    "STUDYID": "CDISCPILOT01",
    "DOMAIN": "EX",
    "USUBJID": "CDISC004",
    "SPDEVID": "DEV0004",
    "EXSEQ": 20.0,
    "EXTRT": "PLACEBO",
    "EXDOSE": 5.397605346934028e-79,
    "EXDOSU": "mg",
    "EXDOSFRM": "INJECTION",
    "EXDOSFRQ": "QD",
    "EXROUTE": "SUBCUTANEOUS",
    "EXLOT": "SDS580-485",
    "EPOCH": "TREATMENT",
    "EXSTDTC": "2013-10-27",
    "EXENDTC": "2013-10-27",
    "EXSTDY": 20.0,
    "EXENDY": 20.0
  },
  {
    "STUDYID": "CDISCPILOT01",
    "DOMAIN": "EX",
    "USUBJID": "CDISC004",
    "SPDEVID": "DEV0004",
    "EXSEQ": 21.0,
    "EXTRT": "PLACEBO",
    "EXDOSE": 5.397605346934028e-79,
    "EXDOSU": "mg",
    "EXDOSFRM": "INJECTION",
    "EXDOSFRQ": "QD",
    "EXROUTE": "SUBCUTANEOUS",
    "EXLOT": "SDS580-485",
    "EPOCH": "TREATMENT",
    "EXSTDTC": "2013-10-28",
    "EXENDTC": "2013-10-28",
    "EXSTDY": 21.0,
    "EXENDY": 21.0
  },
  {
    "STUDYID": "CDISCPILOT01",
    "DOMAIN": "EX",
    "USUBJID": "CDISC004",
    "SPDEVID": "DEV0004",
    "EXSEQ": 22.0,
    "EXTRT": "PLACEBO",
    "EXDOSE": 5.397605346934028e-79,
    "EXDOSU": "mg",
    "EXDOSFRM": "INJECTION",
    "EXDOSFRQ": "QD",
    "EXROUTE": "SUBCUTANEOUS",
    "EXLOT": "SDS580-485",
    "EPOCH": "TREATMENT",
    "EXSTDTC": "2013-10-29",
    "EXENDTC": "2013-10-29",
    "EXSTDY": 22.0,
    "EXENDY": 22.0
  },
  {
    "STUDYID": "CDISCPILOT01",
    "DOMAIN": "EX",
    "USUBJID": "CDISC004",
    "SPDEVID": "DEV0004",
    "EXSEQ": 23.0,
    "EXTRT": "PLACEBO",
    "EXDOSE": 5.397605346934028e-79,
    "EXDOSU": "mg",
    "EXDOSFRM": "INJECTION",
    "EXDOSFRQ": "QD",
    "EXROUTE": "SUBCUTANEOUS",
    "EXLOT": "SDS580-485",
    "EPOCH": "TREATMENT",
    "EXSTDTC": "2013-10-30",
    "EXENDTC": "2013-10-30",
    "EXSTDY": 23.0,
    "EXENDY": 23.0
  },
  {
    "STUDYID": "CDISCPILOT01",
    "DOMAIN": "EX",
    "USUBJID": "CDISC004",
    "SPDEVID": "DEV0004",
    "EXSEQ": 24.0,
    "EXTRT": "PLACEBO",
    "EXDOSE": 5.397605346934028e-79,
    "EXDOSU": "mg",
    "EXDOSFRM": "INJECTION",
    "EXDOSFRQ": "QD",
    "EXROUTE": "SUBCUTANEOUS",
    "EXLOT": "SDS580-485",
    "EPOCH": "TREATMENT",
    "EXSTDTC": "2013-10-31",
    "EXENDTC": "2013-10-31",
    "EXSTDY": 24.0,
    "EXENDY": 24.0
  },
  {
    "STUDYID": "CDISCPILOT01",
    "DOMAIN": "EX",
    "USUBJID": "CDISC004",
    "SPDEVID": "DEV0004",
    "EXSEQ": 25.0,
    "EXTRT": "PLACEBO",
    "EXDOSE": 5.397605346934028e-79,
    "EXDOSU": "mg",
    "EXDOSFRM": "INJECTION",
    "EXDOSFRQ": "QD",
    "EXROUTE": "SUBCUTANEOUS",
    "EXLOT": "SDS580-485",
    "EPOCH": "TREATMENT",
    "EXSTDTC": "2013-11-01",
    "EXENDTC": "2013-11-01",
    "EXSTDY": 25.0,
    "EXENDY": 25.0
  },
  {
    "STUDYID": "CDISCPILOT01",
    "DOMAIN": "EX",
    "USUBJID": "CDISC004",
    "SPDEVID": "DEV0004",
    "EXSEQ": 26.0,
    "EXTRT": "PLACEBO",
    "EXDOSE": 5.397605346934028e-79,
    "EXDOSU": "mg",
    "EXDOSFRM": "INJECTION",
    "EXDOSFRQ": "QD",
    "EXROUTE": "SUBCUTANEOUS",
    "EXLOT": "SDS580-485",
    "EPOCH": "TREATMENT",
    "EXSTDTC": "2013-11-02",
    "EXENDTC": "2013-11-02",
    "EXSTDY": 26.0,
    "EXENDY": 26.0
  },
  {
    "STUDYID": "CDISCPILOT01",
    "DOMAIN": "EX",
    "USUBJID": "CDISC004",
    "SPDEVID": "DEV0004",
    "EXSEQ": 27.0,
    "EXTRT": "PLACEBO",
    "EXDOSE": 5.397605346934028e-79,
    "EXDOSU": "mg",
    "EXDOSFRM": "INJECTION",
    "EXDOSFRQ": "QD",
    "EXROUTE": "SUBCUTANEOUS",
    "EXLOT": "SDS580-485",
    "EPOCH": "TREATMENT",
    "EXSTDTC": "2013-11-03",
    "EXENDTC": "2013-11-03",
    "EXSTDY": 27.0,
    "EXENDY": 27.0
  },
  {
    "STUDYID": "CDISCPILOT01",
    "DOMAIN": "EX",
    "USUBJID": "CDISC004",
    "SPDEVID": "DEV0004",
    "EXSEQ": 28.0,
    "EXTRT": "PLACEBO",
    "EXDOSE": 5.397605346934028e-79,
    "EXDOSU": "mg",
    "EXDOSFRM": "INJECTION",
    "EXDOSFRQ": "QD",
    "EXROUTE": "SUBCUTANEOUS",
    "EXLOT": "SDS580-485",
    "EPOCH": "TREATMENT",
    "EXSTDTC": "2013-11-04",
    "EXENDTC": "2013-11-04",
    "EXSTDY": 28.0,
    "EXENDY": 28.0
  },
  {
    "STUDYID": "CDISCPILOT01",
    "DOMAIN": "EX",
    "USUBJID": "CDISC004",
    "SPDEVID": "DEV0004",
    "EXSEQ": 29.0,
    "EXTRT": "PLACEBO",
    "EXDOSE": 5.397605346934028e-79,
    "EXDOSU": "mg",
    "EXDOSFRM": "INJECTION",
    "EXDOSFRQ": "QD",
    "EXROUTE": "SUBCUTANEOUS",
    "EXLOT": "SDS580-485",
    "EPOCH": "TREATMENT",
    "EXSTDTC": "2013-11-05",
    "EXENDTC": "2013-11-05",
    "EXSTDY": 29.0,
    "EXENDY": 29.0
  },
  {
    "STUDYID": "CDISCPILOT01",
    "DOMAIN": "EX",
    "USUBJID": "CDISC004",
    "SPDEVID": "DEV0004",
    "EXSEQ": 30.0,
    "EXTRT": "PLACEBO",
    "EXDOSE": 5.397605346934028e-79,
    "EXDOSU": "mg",
    "EXDOSFRM": "INJECTION",
    "EXDOSFRQ": "QD",
    "EXROUTE": "SUBCUTANEOUS",
    "EXLOT": "SDS580-485",
    "EPOCH": "TREATMENT",
    "EXSTDTC": "2013-11-06",
    "EXENDTC": "2013-11-06",
    "EXSTDY": 30.0,
    "EXENDY": 30.0
  },
  {
    "STUDYID": "CDISCPILOT01",
    "DOMAIN": "EX",
    "USUBJID": "CDISC004",
    "SPDEVID": "DEV0004",
    "EXSEQ": 31.0,
    "EXTRT": "PLACEBO",
    "EXDOSE": 5.397605346934028e-79,
    "EXDOSU": "mg",
    "EXDOSFRM": "INJECTION",
    "EXDOSFRQ": "QD",
    "EXROUTE": "SUBCUTANEOUS",
    "EXLOT": "SDS580-485",
    "EPOCH": "TREATMENT",
    "EXSTDTC": "2013-11-07",
    "EXENDTC": "2013-11-07",
    "EXSTDY": 31.0,
    "EXENDY": 31.0
  },
  {
    "STUDYID": "CDISCPILOT01",
    "DOMAIN": "EX",
    "USUBJID": "CDISC004",
    "SPDEVID": "DEV0004",
    "EXSEQ": 32.0,
    "EXTRT": "PLACEBO",
    "EXDOSE": 5.397605346934028e-79,
    "EXDOSU": "mg",
    "EXDOSFRM": "INJECTION",
    "EXDOSFRQ": "QD",
    "EXROUTE": "SUBCUTANEOUS",
    "EXLOT": "SDS580-485",
    "EPOCH": "TREATMENT",
    "EXSTDTC": "2013-11-08",
    "EXENDTC": "2013-11-08",
    "EXSTDY": 32.0,
    "EXENDY": 32.0
  },
  {
    "STUDYID": "CDISCPILOT01",
    "DOMAIN": "EX",
    "USUBJID": "CDISC004",
    "SPDEVID": "DEV0004",
    "EXSEQ": 33.0,
    "EXTRT": "PLACEBO",
    "EXDOSE": 5.397605346934028e-79,
    "EXDOSU": "mg",
    "EXDOSFRM": "INJECTION",
    "EXDOSFRQ": "QD",
    "EXROUTE": "SUBCUTANEOUS",
    "EXLOT": "SDS580-485",
    "EPOCH": "TREATMENT",
    "EXSTDTC": "2013-11-09",
    "EXENDTC": "2013-11-09",
    "EXSTDY": 33.0,
    "EXENDY": 33.0
  },
  {
    "STUDYID": "CDISCPILOT01",
    "DOMAIN": "EX",
    "USUBJID": "CDISC004",
    "SPDEVID": "DEV0004",
    "EXSEQ": 34.0,
    "EXTRT": "PLACEBO",
    "EXDOSE": 5.397605346934028e-79,
    "EXDOSU": "mg",
    "EXDOSFRM": "INJECTION",
    "EXDOSFRQ": "QD",
    "EXROUTE": "SUBCUTANEOUS",
    "EXLOT": "SDS580-485",
    "EPOCH": "TREATMENT",
    "EXSTDTC": "2013-11-10",
    "EXENDTC": "2013-11-10",
    "EXSTDY": 34.0,
    "EXENDY": 34.0
  },
  {
    "STUDYID": "CDISCPILOT01",
    "DOMAIN": "EX",
    "USUBJID": "CDISC004",
    "SPDEVID": "DEV0004",
    "EXSEQ": 35.0,
    "EXTRT": "PLACEBO",
    "EXDOSE": 5.397605346934028e-79,
    "EXDOSU": "mg",
    "EXDOSFRM": "INJECTION",
    "EXDOSFRQ": "QD",
    "EXROUTE": "SUBCUTANEOUS",
    "EXLOT": "SDS580-485",
    "EPOCH": "TREATMENT",
    "EXSTDTC": "2013-11-11",
    "EXENDTC": "2013-11-11",
    "EXSTDY": 35.0,
    "EXENDY": 35.0
  },
  {
    "STUDYID": "CDISCPILOT01",
    "DOMAIN": "EX",
    "USUBJID": "CDISC004",
    "SPDEVID": "DEV0004",
    "EXSEQ": 36.0,
    "EXTRT": "PLACEBO",
    "EXDOSE": 5.397605346934028e-79,
    "EXDOSU": "mg",
    "EXDOSFRM": "INJECTION",
    "EXDOSFRQ": "QD",
    "EXROUTE": "SUBCUTANEOUS",
    "EXLOT": "SDS580-485",
    "EPOCH": "TREATMENT",
    "EXSTDTC": "2013-11-12",
    "EXENDTC": "2013-11-12",
    "EXSTDY": 36.0,
    "EXENDY": 36.0
  },
  {
    "STUDYID": "CDISCPILOT01",
    "DOMAIN": "EX",
    "USUBJID": "CDISC004",
    "SPDEVID": "DEV0004",
    "EXSEQ": 37.0,
    "EXTRT": "PLACEBO",
    "EXDOSE": 5.397605346934028e-79,
    "EXDOSU": "mg",
    "EXDOSFRM": "INJECTION",
    "EXDOSFRQ": "QD",
    "EXROUTE": "SUBCUTANEOUS",
    "EXLOT": "SDS580-485",
    "EPOCH": "TREATMENT",
    "EXSTDTC": "2013-11-13",
    "EXENDTC": "2013-11-13",
    "EXSTDY": 37.0,
    "EXENDY": 37.0
  },
  {
    "STUDYID": "CDISCPILOT01",
    "DOMAIN": "EX",
    "USUBJID": "CDISC004",
    "SPDEVID": "DEV0004",
    "EXSEQ": 38.0,
    "EXTRT": "PLACEBO",
    "EXDOSE": 5.397605346934028e-79,
    "EXDOSU": "mg",
    "EXDOSFRM": "INJECTION",
    "EXDOSFRQ": "QD",
    "EXROUTE": "SUBCUTANEOUS",
    "EXLOT": "SDS580-485",
    "EPOCH": "TREATMENT",
    "EXSTDTC": "2013-11-14",
    "EXENDTC": "2013-11-14",
    "EXSTDY": 38.0,
    "EXENDY": 38.0
  },
  {
    "STUDYID": "CDISCPILOT01",
    "DOMAIN": "EX",
    "USUBJID": "CDISC004",
    "SPDEVID": "DEV0004",
    "EXSEQ": 39.0,
    "EXTRT": "PLACEBO",
    "EXDOSE": 5.397605346934028e-79,
    "EXDOSU": "mg",
    "EXDOSFRM": "INJECTION",
    "EXDOSFRQ": "QD",
    "EXROUTE": "SUBCUTANEOUS",
    "EXLOT": "SDS580-485",
    "EPOCH": "TREATMENT",
    "EXSTDTC": "2013-11-15",
    "EXENDTC": "2013-11-15",
    "EXSTDY": 39.0,
    "EXENDY": 39.0
  },
  {
    "STUDYID": "CDISCPILOT01",
    "DOMAIN": "EX",
    "USUBJID": "CDISC004",
    "SPDEVID": "DEV0004",
    "EXSEQ": 40.0,
    "EXTRT": "PLACEBO",
    "EXDOSE": 5.397605346934028e-79,
    "EXDOSU": "mg",
    "EXDOSFRM": "INJECTION",
    "EXDOSFRQ": "QD",
    "EXROUTE": "SUBCUTANEOUS",
    "EXLOT": "SDS580-485",
    "EPOCH": "TREATMENT",
    "EXSTDTC": "2013-11-16",
    "EXENDTC": "2013-11-16",
    "EXSTDY": 40.0,
    "EXENDY": 40.0
  },
  {
    "STUDYID": "CDISCPILOT01",
    "DOMAIN": "EX",
    "USUBJID": "CDISC004",
    "SPDEVID": "DEV0004",
    "EXSEQ": 41.0,
    "EXTRT": "PLACEBO",
    "EXDOSE": 5.397605346934028e-79,
    "EXDOSU": "mg",
    "EXDOSFRM": "INJECTION",
    "EXDOSFRQ": "QD",
    "EXROUTE": "SUBCUTANEOUS",
    "EXLOT": "SDS580-485",
    "EPOCH": "TREATMENT",
    "EXSTDTC": "2013-11-17",
    "EXENDTC": "2013-11-17",
    "EXSTDY": 41.0,
    "EXENDY": 41.0
  },
  {
    "STUDYID": "CDISCPILOT01",
    "DOMAIN": "EX",
    "USUBJID": "CDISC004",
    "SPDEVID": "DEV0004",
    "EXSEQ": 42.0,
    "EXTRT": "PLACEBO",
    "EXDOSE": 5.397605346934028e-79,
    "EXDOSU": "mg",
    "EXDOSFRM": "INJECTION",
    "EXDOSFRQ": "QD",
    "EXROUTE": "SUBCUTANEOUS",
    "EXLOT": "SDS580-485",
    "EPOCH": "TREATMENT",
    "EXSTDTC": "2013-11-18",
    "EXENDTC": "2013-11-18",
    "EXSTDY": 42.0,
    "EXENDY": 42.0
  },
  {
    "STUDYID": "CDISCPILOT01",
    "DOMAIN": "EX",
    "USUBJID": "CDISC004",
    "SPDEVID": "DEV0004",
    "EXSEQ": 43.0,
    "EXTRT": "PLACEBO",
    "EXDOSE": 5.397605346934028e-79,
    "EXDOSU": "mg",
    "EXDOSFRM": "INJECTION",
    "EXDOSFRQ": "QD",
    "EXROUTE": "SUBCUTANEOUS",
    "EXLOT": "SDS580-485",
    "EPOCH": "TREATMENT",
    "EXSTDTC": "2013-11-19",
    "EXENDTC": "2013-11-19",
    "EXSTDY": 43.0,
    "EXENDY": 43.0
  },
  {
    "STUDYID": "CDISCPILOT01",
    "DOMAIN": "EX",
    "USUBJID": "CDISC004",
    "SPDEVID": "DEV0004",
    "EXSEQ": 44.0,
    "EXTRT": "PLACEBO",
    "EXDOSE": 5.397605346934028e-79,
    "EXDOSU": "mg",
    "EXDOSFRM": "INJECTION",
    "EXDOSFRQ": "QD",
    "EXROUTE": "SUBCUTANEOUS",
    "EXLOT": "SDS580-485",
    "EPOCH": "TREATMENT",
    "EXSTDTC": "2013-11-20",
    "EXENDTC": "2013-11-20",
    "EXSTDY": 44.0,
    "EXENDY": 44.0
  },
  {
    "STUDYID": "CDISCPILOT01",
    "DOMAIN": "EX",
    "USUBJID": "CDISC004",
    "SPDEVID": "DEV0004",
    "EXSEQ": 45.0,
    "EXTRT": "PLACEBO",
    "EXDOSE": 5.397605346934028e-79,
    "EXDOSU": "mg",
    "EXDOSFRM": "INJECTION",
    "EXDOSFRQ": "QD",
    "EXROUTE": "SUBCUTANEOUS",
    "EXLOT": "SDS580-485",
    "EPOCH": "TREATMENT",
    "EXSTDTC": "2013-11-21",
    "EXENDTC": "2013-11-21",
    "EXSTDY": 45.0,
    "EXENDY": 45.0
  },
  {
    "STUDYID": "CDISCPILOT01",
    "DOMAIN": "EX",
    "USUBJID": "CDISC004",
    "SPDEVID": "DEV0004",
    "EXSEQ": 46.0,
    "EXTRT": "PLACEBO",
    "EXDOSE": 5.397605346934028e-79,
    "EXDOSU": "mg",
    "EXDOSFRM": "INJECTION",
    "EXDOSFRQ": "QD",
    "EXROUTE": "SUBCUTANEOUS",
    "EXLOT": "SDS580-485",
    "EPOCH": "TREATMENT",
    "EXSTDTC": "2013-11-22",
    "EXENDTC": "2013-11-22",
    "EXSTDY": 46.0,
    "EXENDY": 46.0
  },
  {
    "STUDYID": "CDISCPILOT01",
    "DOMAIN": "EX",
    "USUBJID": "CDISC004",
    "SPDEVID": "DEV0004",
    "EXSEQ": 47.0,
    "EXTRT": "PLACEBO",
    "EXDOSE": 5.397605346934028e-79,
    "EXDOSU": "mg",
    "EXDOSFRM": "INJECTION",
    "EXDOSFRQ": "QD",
    "EXROUTE": "SUBCUTANEOUS",
    "EXLOT": "SDS580-485",
    "EPOCH": "TREATMENT",
    "EXSTDTC": "2013-11-23",
    "EXENDTC": "2013-11-23",
    "EXSTDY": 47.0,
    "EXENDY": 47.0
  },
  {
    "STUDYID": "CDISCPILOT01",
    "DOMAIN": "EX",
    "USUBJID": "CDISC004",
    "SPDEVID": "DEV0004",
    "EXSEQ": 48.0,
    "EXTRT": "PLACEBO",
    "EXDOSE": 5.397605346934028e-79,
    "EXDOSU": "mg",
    "EXDOSFRM": "INJECTION",
    "EXDOSFRQ": "QD",
    "EXROUTE": "SUBCUTANEOUS",
    "EXLOT": "SDS580-485",
    "EPOCH": "TREATMENT",
    "EXSTDTC": "2013-11-24",
    "EXENDTC": "2013-11-24",
    "EXSTDY": 48.0,
    "EXENDY": 48.0
  },
  {
    "STUDYID": "CDISCPILOT01",
    "DOMAIN": "EX",
    "USUBJID": "CDISC004",
    "SPDEVID": "DEV0004",
    "EXSEQ": 49.0,
    "EXTRT": "PLACEBO",
    "EXDOSE": 5.397605346934028e-79,
    "EXDOSU": "mg",
    "EXDOSFRM": "INJECTION",
    "EXDOSFRQ": "QD",
    "EXROUTE": "SUBCUTANEOUS",
    "EXLOT": "SDS580-485",
    "EPOCH": "TREATMENT",
    "EXSTDTC": "2013-11-25",
    "EXENDTC": "2013-11-25",
    "EXSTDY": 49.0,
    "EXENDY": 49.0
  },
  {
    "STUDYID": "CDISCPILOT01",
    "DOMAIN": "EX",
    "USUBJID": "CDISC004",
    "SPDEVID": "DEV0004",
    "EXSEQ": 50.0,
    "EXTRT": "PLACEBO",
    "EXDOSE": 5.397605346934028e-79,
    "EXDOSU": "mg",
    "EXDOSFRM": "INJECTION",
    "EXDOSFRQ": "QD",
    "EXROUTE": "SUBCUTANEOUS",
    "EXLOT": "SDS580-485",
    "EPOCH": "TREATMENT",
    "EXSTDTC": "2013-11-26",
    "EXENDTC": "2013-11-26",
    "EXSTDY": 50.0,
    "EXENDY": 50.0
  },
  {
    "STUDYID": "CDISCPILOT01",
    "DOMAIN": "EX",
    "USUBJID": "CDISC004",
    "SPDEVID": "DEV0004",
    "EXSEQ": 51.0,
    "EXTRT": "PLACEBO",
    "EXDOSE": 5.397605346934028e-79,
    "EXDOSU": "mg",
    "EXDOSFRM": "INJECTION",
    "EXDOSFRQ": "QD",
    "EXROUTE": "SUBCUTANEOUS",
    "EXLOT": "SDS580-485",
    "EPOCH": "TREATMENT",
    "EXSTDTC": "2013-11-27",
    "EXENDTC": "2013-11-27",
    "EXSTDY": 51.0,
    "EXENDY": 51.0
  },
  {
    "STUDYID": "CDISCPILOT01",
    "DOMAIN": "EX",
    "USUBJID": "CDISC004",
    "SPDEVID": "DEV0004",
    "EXSEQ": 52.0,
    "EXTRT": "PLACEBO",
    "EXDOSE": 5.397605346934028e-79,
    "EXDOSU": "mg",
    "EXDOSFRM": "INJECTION",
    "EXDOSFRQ": "QD",
    "EXROUTE": "SUBCUTANEOUS",
    "EXLOT": "SDS580-485",
    "EPOCH": "TREATMENT",
    "EXSTDTC": "2013-11-28",
    "EXENDTC": "2013-11-28",
    "EXSTDY": 52.0,
    "EXENDY": 52.0
  },
  {
    "STUDYID": "CDISCPILOT01",
    "DOMAIN": "EX",
    "USUBJID": "CDISC004",
    "SPDEVID": "DEV0004",
    "EXSEQ": 53.0,
    "EXTRT": "PLACEBO",
    "EXDOSE": 5.397605346934028e-79,
    "EXDOSU": "mg",
    "EXDOSFRM": "INJECTION",
    "EXDOSFRQ": "QD",
    "EXROUTE": "SUBCUTANEOUS",
    "EXLOT": "SDS580-485",
    "EPOCH": "TREATMENT",
    "EXSTDTC": "2013-11-29",
    "EXENDTC": "2013-11-29",
    "EXSTDY": 53.0,
    "EXENDY": 53.0
  },
  {
    "STUDYID": "CDISCPILOT01",
    "DOMAIN": "EX",
    "USUBJID": "CDISC004",
    "SPDEVID": "DEV0004",
    "EXSEQ": 54.0,
    "EXTRT": "PLACEBO",
    "EXDOSE": 5.397605346934028e-79,
    "EXDOSU": "mg",
    "EXDOSFRM": "INJECTION",
    "EXDOSFRQ": "QD",
    "EXROUTE": "SUBCUTANEOUS",
    "EXLOT": "SDS580-485",
    "EPOCH": "TREATMENT",
    "EXSTDTC": "2013-11-30",
    "EXENDTC": "2013-11-30",
    "EXSTDY": 54.0,
    "EXENDY": 54.0
  },
  {
    "STUDYID": "CDISCPILOT01",
    "DOMAIN": "EX",
    "USUBJID": "CDISC004",
    "SPDEVID": "DEV0004",
    "EXSEQ": 55.0,
    "EXTRT": "PLACEBO",
    "EXDOSE": 5.397605346934028e-79,
    "EXDOSU": "mg",
    "EXDOSFRM": "INJECTION",
    "EXDOSFRQ": "QD",
    "EXROUTE": "SUBCUTANEOUS",
    "EXLOT": "SDS580-485",
    "EPOCH": "TREATMENT",
    "EXSTDTC": "2013-12-01",
    "EXENDTC": "2013-12-01",
    "EXSTDY": 55.0,
    "EXENDY": 55.0
  },
  {
    "STUDYID": "CDISCPILOT01",
    "DOMAIN": "EX",
    "USUBJID": "CDISC004",
    "SPDEVID": "DEV0004",
    "EXSEQ": 56.0,
    "EXTRT": "PLACEBO",
    "EXDOSE": 5.397605346934028e-79,
    "EXDOSU": "mg",
    "EXDOSFRM": "INJECTION",
    "EXDOSFRQ": "QD",
    "EXROUTE": "SUBCUTANEOUS",
    "EXLOT": "SDS580-485",
    "EPOCH": "TREATMENT",
    "EXSTDTC": "2013-12-02",
    "EXENDTC": "2013-12-02",
    "EXSTDY": 56.0,
    "EXENDY": 56.0
  },
  {
    "STUDYID": "CDISCPILOT01",
    "DOMAIN": "EX",
    "USUBJID": "CDISC004",
    "SPDEVID": "DEV0004",
    "EXSEQ": 57.0,
    "EXTRT": "PLACEBO",
    "EXDOSE": 5.397605346934028e-79,
    "EXDOSU": "mg",
    "EXDOSFRM": "INJECTION",
    "EXDOSFRQ": "QD",
    "EXROUTE": "SUBCUTANEOUS",
    "EXLOT": "SDS580-485",
    "EPOCH": "TREATMENT",
    "EXSTDTC": "2013-12-03",
    "EXENDTC": "2013-12-03",
    "EXSTDY": 57.0,
    "EXENDY": 57.0
  },
  {
    "STUDYID": "CDISCPILOT01",
    "DOMAIN": "EX",
    "USUBJID": "CDISC004",
    "SPDEVID": "DEV0004",
    "EXSEQ": 58.0,
    "EXTRT": "PLACEBO",
    "EXDOSE": 5.397605346934028e-79,
    "EXDOSU": "mg",
    "EXDOSFRM": "INJECTION",
    "EXDOSFRQ": "QD",
    "EXROUTE": "SUBCUTANEOUS",
    "EXLOT": "SDS580-485",
    "EPOCH": "TREATMENT",
    "EXSTDTC": "2013-12-04",
    "EXENDTC": "2013-12-04",
    "EXSTDY": 58.0,
    "EXENDY": 58.0
  },
  {
    "STUDYID": "CDISCPILOT01",
    "DOMAIN": "EX",
    "USUBJID": "CDISC004",
    "SPDEVID": "DEV0004",
    "EXSEQ": 59.0,
    "EXTRT": "PLACEBO",
    "EXDOSE": 5.397605346934028e-79,
    "EXDOSU": "mg",
    "EXDOSFRM": "INJECTION",
    "EXDOSFRQ": "QD",
    "EXROUTE": "SUBCUTANEOUS",
    "EXLOT": "SDS580-485",
    "EPOCH": "TREATMENT",
    "EXSTDTC": "2013-12-05",
    "EXENDTC": "2013-12-05",
    "EXSTDY": 59.0,
    "EXENDY": 59.0
  },
  {
    "STUDYID": "CDISCPILOT01",
    "DOMAIN": "EX",
    "USUBJID": "CDISC004",
    "SPDEVID": "DEV0004",
    "EXSEQ": 60.0,
    "EXTRT": "PLACEBO",
    "EXDOSE": 5.397605346934028e-79,
    "EXDOSU": "mg",
    "EXDOSFRM": "INJECTION",
    "EXDOSFRQ": "QD",
    "EXROUTE": "SUBCUTANEOUS",
    "EXLOT": "SDS580-485",
    "EPOCH": "TREATMENT",
    "EXSTDTC": "2013-12-06",
    "EXENDTC": "2013-12-06",
    "EXSTDY": 60.0,
    "EXENDY": 60.0
  },
  {
    "STUDYID": "CDISCPILOT01",
    "DOMAIN": "EX",
    "USUBJID": "CDISC004",
    "SPDEVID": "DEV0004",
    "EXSEQ": 61.0,
    "EXTRT": "PLACEBO",
    "EXDOSE": 5.397605346934028e-79,
    "EXDOSU": "mg",
    "EXDOSFRM": "INJECTION",
    "EXDOSFRQ": "QD",
    "EXROUTE": "SUBCUTANEOUS",
    "EXLOT": "SDS580-485",
    "EPOCH": "TREATMENT",
    "EXSTDTC": "2013-12-07",
    "EXENDTC": "2013-12-07",
    "EXSTDY": 61.0,
    "EXENDY": 61.0
  },
  {
    "STUDYID": "CDISCPILOT01",
    "DOMAIN": "EX",
    "USUBJID": "CDISC004",
    "SPDEVID": "DEV0004",
    "EXSEQ": 62.0,
    "EXTRT": "PLACEBO",
    "EXDOSE": 5.397605346934028e-79,
    "EXDOSU": "mg",
    "EXDOSFRM": "INJECTION",
    "EXDOSFRQ": "QD",
    "EXROUTE": "SUBCUTANEOUS",
    "EXLOT": "SDS580-485",
    "EPOCH": "TREATMENT",
    "EXSTDTC": "2013-12-08",
    "EXENDTC": "2013-12-08",
    "EXSTDY": 62.0,
    "EXENDY": 62.0
  },
  {
    "STUDYID": "CDISCPILOT01",
    "DOMAIN": "EX",
    "USUBJID": "CDISC004",
    "SPDEVID": "DEV0004",
    "EXSEQ": 63.0,
    "EXTRT": "PLACEBO",
    "EXDOSE": 5.397605346934028e-79,
    "EXDOSU": "mg",
    "EXDOSFRM": "INJECTION",
    "EXDOSFRQ": "QD",
    "EXROUTE": "SUBCUTANEOUS",
    "EXLOT": "SDS580-485",
    "EPOCH": "TREATMENT",
    "EXSTDTC": "2013-12-09",
    "EXENDTC": "2013-12-09",
    "EXSTDY": 63.0,
    "EXENDY": 63.0
  },
  {
    "STUDYID": "CDISCPILOT01",
    "DOMAIN": "EX",
    "USUBJID": "CDISC004",
    "SPDEVID": "DEV0004",
    "EXSEQ": 64.0,
    "EXTRT": "PLACEBO",
    "EXDOSE": 5.397605346934028e-79,
    "EXDOSU": "mg",
    "EXDOSFRM": "INJECTION",
    "EXDOSFRQ": "QD",
    "EXROUTE": "SUBCUTANEOUS",
    "EXLOT": "SDS580-485",
    "EPOCH": "TREATMENT",
    "EXSTDTC": "2013-12-10",
    "EXENDTC": "2013-12-10",
    "EXSTDY": 64.0,
    "EXENDY": 64.0
  },
  {
    "STUDYID": "CDISCPILOT01",
    "DOMAIN": "EX",
    "USUBJID": "CDISC004",
    "SPDEVID": "DEV0004",
    "EXSEQ": 65.0,
    "EXTRT": "PLACEBO",
    "EXDOSE": 5.397605346934028e-79,
    "EXDOSU": "mg",
    "EXDOSFRM": "INJECTION",
    "EXDOSFRQ": "QD",
    "EXROUTE": "SUBCUTANEOUS",
    "EXLOT": "SDS580-485",
    "EPOCH": "TREATMENT",
    "EXSTDTC": "2013-12-11",
    "EXENDTC": "2013-12-11",
    "EXSTDY": 65.0,
    "EXENDY": 65.0
  },
  {
    "STUDYID": "CDISCPILOT01",
    "DOMAIN": "EX",
    "USUBJID": "CDISC004",
    "SPDEVID": "DEV0004",
    "EXSEQ": 66.0,
    "EXTRT": "PLACEBO",
    "EXDOSE": 5.397605346934028e-79,
    "EXDOSU": "mg",
    "EXDOSFRM": "INJECTION",
    "EXDOSFRQ": "QD",
    "EXROUTE": "SUBCUTANEOUS",
    "EXLOT": "SDS580-485",
    "EPOCH": "TREATMENT",
    "EXSTDTC": "2013-12-12",
    "EXENDTC": "2013-12-12",
    "EXSTDY": 66.0,
    "EXENDY": 66.0
  },
  {
    "STUDYID": "CDISCPILOT01",
    "DOMAIN": "EX",
    "USUBJID": "CDISC004",
    "SPDEVID": "DEV0004",
    "EXSEQ": 67.0,
    "EXTRT": "PLACEBO",
    "EXDOSE": 5.397605346934028e-79,
    "EXDOSU": "mg",
    "EXDOSFRM": "INJECTION",
    "EXDOSFRQ": "QD",
    "EXROUTE": "SUBCUTANEOUS",
    "EXLOT": "SDS580-485",
    "EPOCH": "TREATMENT",
    "EXSTDTC": "2013-12-13",
    "EXENDTC": "2013-12-13",
    "EXSTDY": 67.0,
    "EXENDY": 67.0
  },
  {
    "STUDYID": "CDISCPILOT01",
    "DOMAIN": "EX",
    "USUBJID": "CDISC004",
    "SPDEVID": "DEV0004",
    "EXSEQ": 68.0,
    "EXTRT": "PLACEBO",
    "EXDOSE": 5.397605346934028e-79,
    "EXDOSU": "mg",
    "EXDOSFRM": "INJECTION",
    "EXDOSFRQ": "QD",
    "EXROUTE": "SUBCUTANEOUS",
    "EXLOT": "SDS580-485",
    "EPOCH": "TREATMENT",
    "EXSTDTC": "2013-12-14",
    "EXENDTC": "2013-12-14",
    "EXSTDY": 68.0,
    "EXENDY": 68.0
  },
  {
    "STUDYID": "CDISCPILOT01",
    "DOMAIN": "EX",
    "USUBJID": "CDISC004",
    "SPDEVID": "DEV0004",
    "EXSEQ": 69.0,
    "EXTRT": "PLACEBO",
    "EXDOSE": 5.397605346934028e-79,
    "EXDOSU": "mg",
    "EXDOSFRM": "INJECTION",
    "EXDOSFRQ": "QD",
    "EXROUTE": "SUBCUTANEOUS",
    "EXLOT": "SDS580-485",
    "EPOCH": "TREATMENT",
    "EXSTDTC": "2013-12-15",
    "EXENDTC": "2013-12-15",
    "EXSTDY": 69.0,
    "EXENDY": 69.0
  },
  {
    "STUDYID": "CDISCPILOT01",
    "DOMAIN": "EX",
    "USUBJID": "CDISC004",
    "SPDEVID": "DEV0004",
    "EXSEQ": 70.0,
    "EXTRT": "PLACEBO",
    "EXDOSE": 5.397605346934028e-79,
    "EXDOSU": "mg",
    "EXDOSFRM": "INJECTION",
    "EXDOSFRQ": "QD",
    "EXROUTE": "SUBCUTANEOUS",
    "EXLOT": "SDS580-485",
    "EPOCH": "TREATMENT",
    "EXSTDTC": "2013-12-16",
    "EXENDTC": "2013-12-16",
    "EXSTDY": 70.0,
    "EXENDY": 70.0
  },
  {
    "STUDYID": "CDISCPILOT01",
    "DOMAIN": "EX",
    "USUBJID": "CDISC004",
    "SPDEVID": "DEV0004",
    "EXSEQ": 71.0,
    "EXTRT": "PLACEBO",
    "EXDOSE": 5.397605346934028e-79,
    "EXDOSU": "mg",
    "EXDOSFRM": "INJECTION",
    "EXDOSFRQ": "QD",
    "EXROUTE": "SUBCUTANEOUS",
    "EXLOT": "SDS580-485",
    "EPOCH": "TREATMENT",
    "EXSTDTC": "2013-12-17",
    "EXENDTC": "2013-12-17",
    "EXSTDY": 71.0,
    "EXENDY": 71.0
  },
  {
    "STUDYID": "CDISCPILOT01",
    "DOMAIN": "EX",
    "USUBJID": "CDISC004",
    "SPDEVID": "DEV0004",
    "EXSEQ": 72.0,
    "EXTRT": "PLACEBO",
    "EXDOSE": 5.397605346934028e-79,
    "EXDOSU": "mg",
    "EXDOSFRM": "INJECTION",
    "EXDOSFRQ": "QD",
    "EXROUTE": "SUBCUTANEOUS",
    "EXLOT": "SDS580-485",
    "EPOCH": "TREATMENT",
    "EXSTDTC": "2013-12-18",
    "EXENDTC": "2013-12-18",
    "EXSTDY": 72.0,
    "EXENDY": 72.0
  },
  {
    "STUDYID": "CDISCPILOT01",
    "DOMAIN": "EX",
    "USUBJID": "CDISC004",
    "SPDEVID": "DEV0004",
    "EXSEQ": 73.0,
    "EXTRT": "PLACEBO",
    "EXDOSE": 5.397605346934028e-79,
    "EXDOSU": "mg",
    "EXDOSFRM": "INJECTION",
    "EXDOSFRQ": "QD",
    "EXROUTE": "SUBCUTANEOUS",
    "EXLOT": "SDS580-485",
    "EPOCH": "TREATMENT",
    "EXSTDTC": "2013-12-19",
    "EXENDTC": "2013-12-19",
    "EXSTDY": 73.0,
    "EXENDY": 73.0
  },
  {
    "STUDYID": "CDISCPILOT01",
    "DOMAIN": "EX",
    "USUBJID": "CDISC004",
    "SPDEVID": "DEV0004",
    "EXSEQ": 74.0,
    "EXTRT": "PLACEBO",
    "EXDOSE": 5.397605346934028e-79,
    "EXDOSU": "mg",
    "EXDOSFRM": "INJECTION",
    "EXDOSFRQ": "QD",
    "EXROUTE": "SUBCUTANEOUS",
    "EXLOT": "SDS580-485",
    "EPOCH": "TREATMENT",
    "EXSTDTC": "2013-12-20",
    "EXENDTC": "2013-12-20",
    "EXSTDY": 74.0,
    "EXENDY": 74.0
  },
  {
    "STUDYID": "CDISCPILOT01",
    "DOMAIN": "EX",
    "USUBJID": "CDISC004",
    "SPDEVID": "DEV0004",
    "EXSEQ": 75.0,
    "EXTRT": "PLACEBO",
    "EXDOSE": 5.397605346934028e-79,
    "EXDOSU": "mg",
    "EXDOSFRM": "INJECTION",
    "EXDOSFRQ": "QD",
    "EXROUTE": "SUBCUTANEOUS",
    "EXLOT": "SDS580-485",
    "EPOCH": "TREATMENT",
    "EXSTDTC": "2013-12-21",
    "EXENDTC": "2013-12-21",
    "EXSTDY": 75.0,
    "EXENDY": 75.0
  },
  {
    "STUDYID": "CDISCPILOT01",
    "DOMAIN": "EX",
    "USUBJID": "CDISC004",
    "SPDEVID": "DEV0004",
    "EXSEQ": 76.0,
    "EXTRT": "PLACEBO",
    "EXDOSE": 5.397605346934028e-79,
    "EXDOSU": "mg",
    "EXDOSFRM": "INJECTION",
    "EXDOSFRQ": "QD",
    "EXROUTE": "SUBCUTANEOUS",
    "EXLOT": "SDS580-485",
    "EPOCH": "TREATMENT",
    "EXSTDTC": "2013-12-22",
    "EXENDTC": "2013-12-22",
    "EXSTDY": 76.0,
    "EXENDY": 76.0
  },
  {
    "STUDYID": "CDISCPILOT01",
    "DOMAIN": "EX",
    "USUBJID": "CDISC004",
    "SPDEVID": "DEV0004",
    "EXSEQ": 77.0,
    "EXTRT": "PLACEBO",
    "EXDOSE": 5.397605346934028e-79,
    "EXDOSU": "mg",
    "EXDOSFRM": "INJECTION",
    "EXDOSFRQ": "QD",
    "EXROUTE": "SUBCUTANEOUS",
    "EXLOT": "SDS580-485",
    "EPOCH": "TREATMENT",
    "EXSTDTC": "2013-12-23",
    "EXENDTC": "2013-12-23",
    "EXSTDY": 77.0,
    "EXENDY": 77.0
  },
  {
    "STUDYID": "CDISCPILOT01",
    "DOMAIN": "EX",
    "USUBJID": "CDISC004",
    "SPDEVID": "DEV0004",
    "EXSEQ": 78.0,
    "EXTRT": "PLACEBO",
    "EXDOSE": 5.397605346934028e-79,
    "EXDOSU": "mg",
    "EXDOSFRM": "INJECTION",
    "EXDOSFRQ": "QD",
    "EXROUTE": "SUBCUTANEOUS",
    "EXLOT": "SDS580-485",
    "EPOCH": "TREATMENT",
    "EXSTDTC": "2013-12-24",
    "EXENDTC": "2013-12-24",
    "EXSTDY": 78.0,
    "EXENDY": 78.0
  },
  {
    "STUDYID": "CDISCPILOT01",
    "DOMAIN": "EX",
    "USUBJID": "CDISC004",
    "SPDEVID": "DEV0004",
    "EXSEQ": 79.0,
    "EXTRT": "PLACEBO",
    "EXDOSE": 5.397605346934028e-79,
    "EXDOSU": "mg",
    "EXDOSFRM": "INJECTION",
    "EXDOSFRQ": "QD",
    "EXROUTE": "SUBCUTANEOUS",
    "EXLOT": "SDS580-485",
    "EPOCH": "TREATMENT",
    "EXSTDTC": "2013-12-25",
    "EXENDTC": "2013-12-25",
    "EXSTDY": 79.0,
    "EXENDY": 79.0
  },
  {
    "STUDYID": "CDISCPILOT01",
    "DOMAIN": "EX",
    "USUBJID": "CDISC004",
    "SPDEVID": "DEV0004",
    "EXSEQ": 80.0,
    "EXTRT": "PLACEBO",
    "EXDOSE": 5.397605346934028e-79,
    "EXDOSU": "mg",
    "EXDOSFRM": "INJECTION",
    "EXDOSFRQ": "QD",
    "EXROUTE": "SUBCUTANEOUS",
    "EXLOT": "SDS580-485",
    "EPOCH": "TREATMENT",
    "EXSTDTC": "2013-12-26",
    "EXENDTC": "2013-12-26",
    "EXSTDY": 80.0,
    "EXENDY": 80.0
  },
  {
    "STUDYID": "CDISCPILOT01",
    "DOMAIN": "EX",
    "USUBJID": "CDISC004",
    "SPDEVID": "DEV0004",
    "EXSEQ": 81.0,
    "EXTRT": "PLACEBO",
    "EXDOSE": 5.397605346934028e-79,
    "EXDOSU": "mg",
    "EXDOSFRM": "INJECTION",
    "EXDOSFRQ": "QD",
    "EXROUTE": "SUBCUTANEOUS",
    "EXLOT": "SDS580-485",
    "EPOCH": "TREATMENT",
    "EXSTDTC": "2013-12-27",
    "EXENDTC": "2013-12-27",
    "EXSTDY": 81.0,
    "EXENDY": 81.0
  },
  {
    "STUDYID": "CDISCPILOT01",
    "DOMAIN": "EX",
    "USUBJID": "CDISC004",
    "SPDEVID": "DEV0004",
    "EXSEQ": 82.0,
    "EXTRT": "PLACEBO",
    "EXDOSE": 5.397605346934028e-79,
    "EXDOSU": "mg",
    "EXDOSFRM": "INJECTION",
    "EXDOSFRQ": "QD",
    "EXROUTE": "SUBCUTANEOUS",
    "EXLOT": "SDS580-485",
    "EPOCH": "TREATMENT",
    "EXSTDTC": "2013-12-28",
    "EXENDTC": "2013-12-28",
    "EXSTDY": 82.0,
    "EXENDY": 82.0
  },
  {
    "STUDYID": "CDISCPILOT01",
    "DOMAIN": "EX",
    "USUBJID": "CDISC004",
    "SPDEVID": "DEV0004",
    "EXSEQ": 83.0,
    "EXTRT": "PLACEBO",
    "EXDOSE": 5.397605346934028e-79,
    "EXDOSU": "mg",
    "EXDOSFRM": "INJECTION",
    "EXDOSFRQ": "QD",
    "EXROUTE": "SUBCUTANEOUS",
    "EXLOT": "SDS580-485",
    "EPOCH": "TREATMENT",
    "EXSTDTC": "2013-12-29",
    "EXENDTC": "2013-12-29",
    "EXSTDY": 83.0,
    "EXENDY": 83.0
  },
  {
    "STUDYID": "CDISCPILOT01",
    "DOMAIN": "EX",
    "USUBJID": "CDISC004",
    "SPDEVID": "DEV0004",
    "EXSEQ": 84.0,
    "EXTRT": "PLACEBO",
    "EXDOSE": 5.397605346934028e-79,
    "EXDOSU": "mg",
    "EXDOSFRM": "INJECTION",
    "EXDOSFRQ": "QD",
    "EXROUTE": "SUBCUTANEOUS",
    "EXLOT": "SDS580-485",
    "EPOCH": "TREATMENT",
    "EXSTDTC": "2013-12-30",
    "EXENDTC": "2013-12-30",
    "EXSTDY": 84.0,
    "EXENDY": 84.0
  },
  {
    "STUDYID": "CDISCPILOT01",
    "DOMAIN": "EX",
    "USUBJID": "CDISC004",
    "SPDEVID": "DEV0004",
    "EXSEQ": 85.0,
    "EXTRT": "PLACEBO",
    "EXDOSE": 5.397605346934028e-79,
    "EXDOSU": "mg",
    "EXDOSFRM": "INJECTION",
    "EXDOSFRQ": "QD",
    "EXROUTE": "SUBCUTANEOUS",
    "EXLOT": "SDS580-485",
    "EPOCH": "TREATMENT",
    "EXSTDTC": "2013-12-31",
    "EXENDTC": "2013-12-31",
    "EXSTDY": 85.0,
    "EXENDY": 85.0
  },
  {
    "STUDYID": "CDISCPILOT01",
    "DOMAIN": "EX",
    "USUBJID": "CDISC004",
    "SPDEVID": "DEV0004",
    "EXSEQ": 86.0,
    "EXTRT": "PLACEBO",
    "EXDOSE": 5.397605346934028e-79,
    "EXDOSU": "mg",
    "EXDOSFRM": "INJECTION",
    "EXDOSFRQ": "QD",
    "EXROUTE": "SUBCUTANEOUS",
    "EXLOT": "SDS580-485",
    "EPOCH": "TREATMENT",
    "EXSTDTC": "2014-01-01",
    "EXENDTC": "2014-01-01",
    "EXSTDY": 86.0,
    "EXENDY": 86.0
  },
  {
    "STUDYID": "CDISCPILOT01",
    "DOMAIN": "EX",
    "USUBJID": "CDISC004",
    "SPDEVID": "DEV0004",
    "EXSEQ": 87.0,
    "EXTRT": "PLACEBO",
    "EXDOSE": 5.397605346934028e-79,
    "EXDOSU": "mg",
    "EXDOSFRM": "INJECTION",
    "EXDOSFRQ": "QD",
    "EXROUTE": "SUBCUTANEOUS",
    "EXLOT": "SDS580-485",
    "EPOCH": "TREATMENT",
    "EXSTDTC": "2014-01-02",
    "EXENDTC": "2014-01-02",
    "EXSTDY": 87.0,
    "EXENDY": 87.0
  },
  {
    "STUDYID": "CDISCPILOT01",
    "DOMAIN": "EX",
    "USUBJID": "CDISC004",
    "SPDEVID": "DEV0004",
    "EXSEQ": 88.0,
    "EXTRT": "PLACEBO",
    "EXDOSE": 5.397605346934028e-79,
    "EXDOSU": "mg",
    "EXDOSFRM": "INJECTION",
    "EXDOSFRQ": "QD",
    "EXROUTE": "SUBCUTANEOUS",
    "EXLOT": "SDS580-485",
    "EPOCH": "TREATMENT",
    "EXSTDTC": "2014-01-03",
    "EXENDTC": "2014-01-03",
    "EXSTDY": 88.0,
    "EXENDY": 88.0
  },
  {
    "STUDYID": "CDISCPILOT01",
    "DOMAIN": "EX",
    "USUBJID": "CDISC004",
    "SPDEVID": "DEV0004",
    "EXSEQ": 89.0,
    "EXTRT": "PLACEBO",
    "EXDOSE": 5.397605346934028e-79,
    "EXDOSU": "mg",
    "EXDOSFRM": "INJECTION",
    "EXDOSFRQ": "QD",
    "EXROUTE": "SUBCUTANEOUS",
    "EXLOT": "SDS580-485",
    "EPOCH": "TREATMENT",
    "EXSTDTC": "2014-01-04",
    "EXENDTC": "2014-01-04",
    "EXSTDY": 89.0,
    "EXENDY": 89.0
  },
  {
    "STUDYID": "CDISCPILOT01",
    "DOMAIN": "EX",
    "USUBJID": "CDISC004",
    "SPDEVID": "DEV0004",
    "EXSEQ": 90.0,
    "EXTRT": "PLACEBO",
    "EXDOSE": 5.397605346934028e-79,
    "EXDOSU": "mg",
    "EXDOSFRM": "INJECTION",
    "EXDOSFRQ": "QD",
    "EXROUTE": "SUBCUTANEOUS",
    "EXLOT": "SDS580-485",
    "EPOCH": "TREATMENT",
    "EXSTDTC": "2014-01-05",
    "EXENDTC": "2014-01-05",
    "EXSTDY": 90.0,
    "EXENDY": 90.0
  },
  {
    "STUDYID": "CDISCPILOT01",
    "DOMAIN": "EX",
    "USUBJID": "CDISC004",
    "SPDEVID": "DEV0004",
    "EXSEQ": 91.0,
    "EXTRT": "PLACEBO",
    "EXDOSE": 5.397605346934028e-79,
    "EXDOSU": "mg",
    "EXDOSFRM": "INJECTION",
    "EXDOSFRQ": "QD",
    "EXROUTE": "SUBCUTANEOUS",
    "EXLOT": "SDS580-485",
    "EPOCH": "TREATMENT",
    "EXSTDTC": "2014-01-06",
    "EXENDTC": "2014-01-06",
    "EXSTDY": 91.0,
    "EXENDY": 91.0
  },
  {
    "STUDYID": "CDISCPILOT01",
    "DOMAIN": "EX",
    "USUBJID": "CDISC004",
    "SPDEVID": "DEV0004",
    "EXSEQ": 92.0,
    "EXTRT": "PLACEBO",
    "EXDOSE": 5.397605346934028e-79,
    "EXDOSU": "mg",
    "EXDOSFRM": "INJECTION",
    "EXDOSFRQ": "QD",
    "EXROUTE": "SUBCUTANEOUS",
    "EXLOT": "SDS580-485",
    "EPOCH": "TREATMENT",
    "EXSTDTC": "2014-01-07",
    "EXENDTC": "2014-01-07",
    "EXSTDY": 92.0,
    "EXENDY": 92.0
  },
  {
    "STUDYID": "CDISCPILOT01",
    "DOMAIN": "EX",
    "USUBJID": "CDISC004",
    "SPDEVID": "DEV0004",
    "EXSEQ": 93.0,
    "EXTRT": "PLACEBO",
    "EXDOSE": 5.397605346934028e-79,
    "EXDOSU": "mg",
    "EXDOSFRM": "INJECTION",
    "EXDOSFRQ": "QD",
    "EXROUTE": "SUBCUTANEOUS",
    "EXLOT": "SDS580-485",
    "EPOCH": "TREATMENT",
    "EXSTDTC": "2014-01-08",
    "EXENDTC": "2014-01-08",
    "EXSTDY": 93.0,
    "EXENDY": 93.0
  },
  {
    "STUDYID": "CDISCPILOT01",
    "DOMAIN": "EX",
    "USUBJID": "CDISC004",
    "SPDEVID": "DEV0004",
    "EXSEQ": 94.0,
    "EXTRT": "PLACEBO",
    "EXDOSE": 5.397605346934028e-79,
    "EXDOSU": "mg",
    "EXDOSFRM": "INJECTION",
    "EXDOSFRQ": "QD",
    "EXROUTE": "SUBCUTANEOUS",
    "EXLOT": "SDS580-485",
    "EPOCH": "TREATMENT",
    "EXSTDTC": "2014-01-09",
    "EXENDTC": "2014-01-09",
    "EXSTDY": 94.0,
    "EXENDY": 94.0
  },
  {
    "STUDYID": "CDISCPILOT01",
    "DOMAIN": "EX",
    "USUBJID": "CDISC004",
    "SPDEVID": "DEV0004",
    "EXSEQ": 95.0,
    "EXTRT": "PLACEBO",
    "EXDOSE": 5.397605346934028e-79,
    "EXDOSU": "mg",
    "EXDOSFRM": "INJECTION",
    "EXDOSFRQ": "QD",
    "EXROUTE": "SUBCUTANEOUS",
    "EXLOT": "SDS580-485",
    "EPOCH": "TREATMENT",
    "EXSTDTC": "2014-01-10",
    "EXENDTC": "2014-01-10",
    "EXSTDY": 95.0,
    "EXENDY": 95.0
  },
  {
    "STUDYID": "CDISCPILOT01",
    "DOMAIN": "EX",
    "USUBJID": "CDISC004",
    "SPDEVID": "DEV0004",
    "EXSEQ": 96.0,
    "EXTRT": "PLACEBO",
    "EXDOSE": 5.397605346934028e-79,
    "EXDOSU": "mg",
    "EXDOSFRM": "INJECTION",
    "EXDOSFRQ": "QD",
    "EXROUTE": "SUBCUTANEOUS",
    "EXLOT": "SDS580-485",
    "EPOCH": "TREATMENT",
    "EXSTDTC": "2014-01-11",
    "EXENDTC": "2014-01-11",
    "EXSTDY": 96.0,
    "EXENDY": 96.0
  },
  {
    "STUDYID": "CDISCPILOT01",
    "DOMAIN": "EX",
    "USUBJID": "CDISC004",
    "SPDEVID": "DEV0004",
    "EXSEQ": 97.0,
    "EXTRT": "PLACEBO",
    "EXDOSE": 5.397605346934028e-79,
    "EXDOSU": "mg",
    "EXDOSFRM": "INJECTION",
    "EXDOSFRQ": "QD",
    "EXROUTE": "SUBCUTANEOUS",
    "EXLOT": "SDS580-485",
    "EPOCH": "TREATMENT",
    "EXSTDTC": "2014-01-12",
    "EXENDTC": "2014-01-12",
    "EXSTDY": 97.0,
    "EXENDY": 97.0
  },
  {
    "STUDYID": "CDISCPILOT01",
    "DOMAIN": "EX",
    "USUBJID": "CDISC004",
    "SPDEVID": "DEV0004",
    "EXSEQ": 98.0,
    "EXTRT": "PLACEBO",
    "EXDOSE": 5.397605346934028e-79,
    "EXDOSU": "mg",
    "EXDOSFRM": "INJECTION",
    "EXDOSFRQ": "QD",
    "EXROUTE": "SUBCUTANEOUS",
    "EXLOT": "SDS580-485",
    "EPOCH": "TREATMENT",
    "EXSTDTC": "2014-01-13",
    "EXENDTC": "2014-01-13",
    "EXSTDY": 98.0,
    "EXENDY": 98.0
  },
  {
    "STUDYID": "CDISCPILOT01",
    "DOMAIN": "EX",
    "USUBJID": "CDISC004",
    "SPDEVID": "DEV0004",
    "EXSEQ": 99.0,
    "EXTRT": "PLACEBO",
    "EXDOSE": 5.397605346934028e-79,
    "EXDOSU": "mg",
    "EXDOSFRM": "INJECTION",
    "EXDOSFRQ": "QD",
    "EXROUTE": "SUBCUTANEOUS",
    "EXLOT": "SDS580-485",
    "EPOCH": "TREATMENT",
    "EXSTDTC": "2014-01-14",
    "EXENDTC": "2014-01-14",
    "EXSTDY": 99.0,
    "EXENDY": 99.0
  },
  {
    "STUDYID": "CDISCPILOT01",
    "DOMAIN": "EX",
    "USUBJID": "CDISC004",
    "SPDEVID": "DEV0004",
    "EXSEQ": 100.0,
    "EXTRT": "PLACEBO",
    "EXDOSE": 5.397605346934028e-79,
    "EXDOSU": "mg",
    "EXDOSFRM": "INJECTION",
    "EXDOSFRQ": "QD",
    "EXROUTE": "SUBCUTANEOUS",
    "EXLOT": "SDS580-485",
    "EPOCH": "TREATMENT",
    "EXSTDTC": "2014-01-15",
    "EXENDTC": "2014-01-15",
    "EXSTDY": 100.0,
    "EXENDY": 100.0
  },
  {
    "STUDYID": "CDISCPILOT01",
    "DOMAIN": "EX",
    "USUBJID": "CDISC004",
    "SPDEVID": "DEV0004",
    "EXSEQ": 101.0,
    "EXTRT": "PLACEBO",
    "EXDOSE": 5.397605346934028e-79,
    "EXDOSU": "mg",
    "EXDOSFRM": "INJECTION",
    "EXDOSFRQ": "QD",
    "EXROUTE": "SUBCUTANEOUS",
    "EXLOT": "SDS580-485",
    "EPOCH": "TREATMENT",
    "EXSTDTC": "2014-01-16",
    "EXENDTC": "2014-01-16",
    "EXSTDY": 101.0,
    "EXENDY": 101.0
  },
  {
    "STUDYID": "CDISCPILOT01",
    "DOMAIN": "EX",
    "USUBJID": "CDISC004",
    "SPDEVID": "DEV0004",
    "EXSEQ": 102.0,
    "EXTRT": "PLACEBO",
    "EXDOSE": 5.397605346934028e-79,
    "EXDOSU": "mg",
    "EXDOSFRM": "INJECTION",
    "EXDOSFRQ": "QD",
    "EXROUTE": "SUBCUTANEOUS",
    "EXLOT": "SDS580-485",
    "EPOCH": "TREATMENT",
    "EXSTDTC": "2014-01-17",
    "EXENDTC": "2014-01-17",
    "EXSTDY": 102.0,
    "EXENDY": 102.0
  },
  {
    "STUDYID": "CDISCPILOT01",
    "DOMAIN": "EX",
    "USUBJID": "CDISC004",
    "SPDEVID": "DEV0004",
    "EXSEQ": 103.0,
    "EXTRT": "PLACEBO",
    "EXDOSE": 5.397605346934028e-79,
    "EXDOSU": "mg",
    "EXDOSFRM": "INJECTION",
    "EXDOSFRQ": "QD",
    "EXROUTE": "SUBCUTANEOUS",
    "EXLOT": "SDS580-485",
    "EPOCH": "TREATMENT",
    "EXSTDTC": "2014-01-18",
    "EXENDTC": "2014-01-18",
    "EXSTDY": 103.0,
    "EXENDY": 103.0
  },
  {
    "STUDYID": "CDISCPILOT01",
    "DOMAIN": "EX",
    "USUBJID": "CDISC004",
    "SPDEVID": "DEV0004",
    "EXSEQ": 104.0,
    "EXTRT": "PLACEBO",
    "EXDOSE": 5.397605346934028e-79,
    "EXDOSU": "mg",
    "EXDOSFRM": "INJECTION",
    "EXDOSFRQ": "QD",
    "EXROUTE": "SUBCUTANEOUS",
    "EXLOT": "SDS580-485",
    "EPOCH": "TREATMENT",
    "EXSTDTC": "2014-01-19",
    "EXENDTC": "2014-01-19",
    "EXSTDY": 104.0,
    "EXENDY": 104.0
  },
  {
    "STUDYID": "CDISCPILOT01",
    "DOMAIN": "EX",
    "USUBJID": "CDISC004",
    "SPDEVID": "DEV0004",
    "EXSEQ": 105.0,
    "EXTRT": "PLACEBO",
    "EXDOSE": 5.397605346934028e-79,
    "EXDOSU": "mg",
    "EXDOSFRM": "INJECTION",
    "EXDOSFRQ": "QD",
    "EXROUTE": "SUBCUTANEOUS",
    "EXLOT": "SDS580-485",
    "EPOCH": "TREATMENT",
    "EXSTDTC": "2014-01-20",
    "EXENDTC": "2014-01-20",
    "EXSTDY": 105.0,
    "EXENDY": 105.0
  },
  {
    "STUDYID": "CDISCPILOT01",
    "DOMAIN": "EX",
    "USUBJID": "CDISC004",
    "SPDEVID": "DEV0004",
    "EXSEQ": 106.0,
    "EXTRT": "PLACEBO",
    "EXDOSE": 5.397605346934028e-79,
    "EXDOSU": "mg",
    "EXDOSFRM": "INJECTION",
    "EXDOSFRQ": "QD",
    "EXROUTE": "SUBCUTANEOUS",
    "EXLOT": "SDS580-485",
    "EPOCH": "TREATMENT",
    "EXSTDTC": "2014-01-21",
    "EXENDTC": "2014-01-21",
    "EXSTDY": 106.0,
    "EXENDY": 106.0
  },
  {
    "STUDYID": "CDISCPILOT01",
    "DOMAIN": "EX",
    "USUBJID": "CDISC004",
    "SPDEVID": "DEV0004",
    "EXSEQ": 107.0,
    "EXTRT": "PLACEBO",
    "EXDOSE": 5.397605346934028e-79,
    "EXDOSU": "mg",
    "EXDOSFRM": "INJECTION",
    "EXDOSFRQ": "QD",
    "EXROUTE": "SUBCUTANEOUS",
    "EXLOT": "SDS580-485",
    "EPOCH": "TREATMENT",
    "EXSTDTC": "2014-01-22",
    "EXENDTC": "2014-01-22",
    "EXSTDY": 107.0,
    "EXENDY": 107.0
  },
  {
    "STUDYID": "CDISCPILOT01",
    "DOMAIN": "EX",
    "USUBJID": "CDISC004",
    "SPDEVID": "DEV0004",
    "EXSEQ": 108.0,
    "EXTRT": "PLACEBO",
    "EXDOSE": 5.397605346934028e-79,
    "EXDOSU": "mg",
    "EXDOSFRM": "INJECTION",
    "EXDOSFRQ": "QD",
    "EXROUTE": "SUBCUTANEOUS",
    "EXLOT": "SDS580-485",
    "EPOCH": "TREATMENT",
    "EXSTDTC": "2014-01-23",
    "EXENDTC": "2014-01-23",
    "EXSTDY": 108.0,
    "EXENDY": 108.0
  },
  {
    "STUDYID": "CDISCPILOT01",
    "DOMAIN": "EX",
    "USUBJID": "CDISC004",
    "SPDEVID": "DEV0004",
    "EXSEQ": 109.0,
    "EXTRT": "PLACEBO",
    "EXDOSE": 5.397605346934028e-79,
    "EXDOSU": "mg",
    "EXDOSFRM": "INJECTION",
    "EXDOSFRQ": "QD",
    "EXROUTE": "SUBCUTANEOUS",
    "EXLOT": "SDS580-485",
    "EPOCH": "TREATMENT",
    "EXSTDTC": "2014-01-24",
    "EXENDTC": "2014-01-24",
    "EXSTDY": 109.0,
    "EXENDY": 109.0
  },
  {
    "STUDYID": "CDISCPILOT01",
    "DOMAIN": "EX",
    "USUBJID": "CDISC004",
    "SPDEVID": "DEV0004",
    "EXSEQ": 110.0,
    "EXTRT": "PLACEBO",
    "EXDOSE": 5.397605346934028e-79,
    "EXDOSU": "mg",
    "EXDOSFRM": "INJECTION",
    "EXDOSFRQ": "QD",
    "EXROUTE": "SUBCUTANEOUS",
    "EXLOT": "SDS580-485",
    "EPOCH": "TREATMENT",
    "EXSTDTC": "2014-01-25",
    "EXENDTC": "2014-01-25",
    "EXSTDY": 110.0,
    "EXENDY": 110.0
  },
  {
    "STUDYID": "CDISCPILOT01",
    "DOMAIN": "EX",
    "USUBJID": "CDISC004",
    "SPDEVID": "DEV0004",
    "EXSEQ": 111.0,
    "EXTRT": "PLACEBO",
    "EXDOSE": 5.397605346934028e-79,
    "EXDOSU": "mg",
    "EXDOSFRM": "INJECTION",
    "EXDOSFRQ": "QD",
    "EXROUTE": "SUBCUTANEOUS",
    "EXLOT": "SDS580-485",
    "EPOCH": "TREATMENT",
    "EXSTDTC": "2014-01-26",
    "EXENDTC": "2014-01-26",
    "EXSTDY": 111.0,
    "EXENDY": 111.0
  },
  {
    "STUDYID": "CDISCPILOT01",
    "DOMAIN": "EX",
    "USUBJID": "CDISC004",
    "SPDEVID": "DEV0004",
    "EXSEQ": 112.0,
    "EXTRT": "PLACEBO",
    "EXDOSE": 5.397605346934028e-79,
    "EXDOSU": "mg",
    "EXDOSFRM": "INJECTION",
    "EXDOSFRQ": "QD",
    "EXROUTE": "SUBCUTANEOUS",
    "EXLOT": "SDS580-485",
    "EPOCH": "TREATMENT",
    "EXSTDTC": "2014-01-27",
    "EXENDTC": "2014-01-27",
    "EXSTDY": 112.0,
    "EXENDY": 112.0
  },
  {
    "STUDYID": "CDISCPILOT01",
    "DOMAIN": "EX",
    "USUBJID": "CDISC004",
    "SPDEVID": "DEV0004",
    "EXSEQ": 113.0,
    "EXTRT": "PLACEBO",
    "EXDOSE": 5.397605346934028e-79,
    "EXDOSU": "mg",
    "EXDOSFRM": "INJECTION",
    "EXDOSFRQ": "QD",
    "EXROUTE": "SUBCUTANEOUS",
    "EXLOT": "SDS580-485",
    "EPOCH": "TREATMENT",
    "EXSTDTC": "2014-01-28",
    "EXENDTC": "2014-01-28",
    "EXSTDY": 113.0,
    "EXENDY": 113.0
  },
  {
    "STUDYID": "CDISCPILOT01",
    "DOMAIN": "EX",
    "USUBJID": "CDISC004",
    "SPDEVID": "DEV0004",
    "EXSEQ": 114.0,
    "EXTRT": "PLACEBO",
    "EXDOSE": 5.397605346934028e-79,
    "EXDOSU": "mg",
    "EXDOSFRM": "INJECTION",
    "EXDOSFRQ": "QD",
    "EXROUTE": "SUBCUTANEOUS",
    "EXLOT": "SDS580-485",
    "EPOCH": "TREATMENT",
    "EXSTDTC": "2014-01-29",
    "EXENDTC": "2014-01-29",
    "EXSTDY": 114.0,
    "EXENDY": 114.0
  },
  {
    "STUDYID": "CDISCPILOT01",
    "DOMAIN": "EX",
    "USUBJID": "CDISC004",
    "SPDEVID": "DEV0004",
    "EXSEQ": 115.0,
    "EXTRT": "PLACEBO",
    "EXDOSE": 5.397605346934028e-79,
    "EXDOSU": "mg",
    "EXDOSFRM": "INJECTION",
    "EXDOSFRQ": "QD",
    "EXROUTE": "SUBCUTANEOUS",
    "EXLOT": "SDS580-485",
    "EPOCH": "TREATMENT",
    "EXSTDTC": "2014-01-30",
    "EXENDTC": "2014-01-30",
    "EXSTDY": 115.0,
    "EXENDY": 115.0
  },
  {
    "STUDYID": "CDISCPILOT01",
    "DOMAIN": "EX",
    "USUBJID": "CDISC004",
    "SPDEVID": "DEV0004",
    "EXSEQ": 116.0,
    "EXTRT": "PLACEBO",
    "EXDOSE": 5.397605346934028e-79,
    "EXDOSU": "mg",
    "EXDOSFRM": "INJECTION",
    "EXDOSFRQ": "QD",
    "EXROUTE": "SUBCUTANEOUS",
    "EXLOT": "SDS580-485",
    "EPOCH": "TREATMENT",
    "EXSTDTC": "2014-01-31",
    "EXENDTC": "2014-01-31",
    "EXSTDY": 116.0,
    "EXENDY": 116.0
  },
  {
    "STUDYID": "CDISCPILOT01",
    "DOMAIN": "EX",
    "USUBJID": "CDISC004",
    "SPDEVID": "DEV0004",
    "EXSEQ": 117.0,
    "EXTRT": "PLACEBO",
    "EXDOSE": 5.397605346934028e-79,
    "EXDOSU": "mg",
    "EXDOSFRM": "INJECTION",
    "EXDOSFRQ": "QD",
    "EXROUTE": "SUBCUTANEOUS",
    "EXLOT": "SDS580-485",
    "EPOCH": "TREATMENT",
    "EXSTDTC": "2014-02-01",
    "EXENDTC": "2014-02-01",
    "EXSTDY": 117.0,
    "EXENDY": 117.0
  },
  {
    "STUDYID": "CDISCPILOT01",
    "DOMAIN": "EX",
    "USUBJID": "CDISC004",
    "SPDEVID": "DEV0004",
    "EXSEQ": 118.0,
    "EXTRT": "PLACEBO",
    "EXDOSE": 5.397605346934028e-79,
    "EXDOSU": "mg",
    "EXDOSFRM": "INJECTION",
    "EXDOSFRQ": "QD",
    "EXROUTE": "SUBCUTANEOUS",
    "EXLOT": "SDS580-485",
    "EPOCH": "TREATMENT",
    "EXSTDTC": "2014-02-02",
    "EXENDTC": "2014-02-02",
    "EXSTDY": 118.0,
    "EXENDY": 118.0
  },
  {
    "STUDYID": "CDISCPILOT01",
    "DOMAIN": "EX",
    "USUBJID": "CDISC004",
    "SPDEVID": "DEV0004",
    "EXSEQ": 119.0,
    "EXTRT": "PLACEBO",
    "EXDOSE": 5.397605346934028e-79,
    "EXDOSU": "mg",
    "EXDOSFRM": "INJECTION",
    "EXDOSFRQ": "QD",
    "EXROUTE": "SUBCUTANEOUS",
    "EXLOT": "SDS580-485",
    "EPOCH": "TREATMENT",
    "EXSTDTC": "2014-02-03",
    "EXENDTC": "2014-02-03",
    "EXSTDY": 119.0,
    "EXENDY": 119.0
  },
  {
    "STUDYID": "CDISCPILOT01",
    "DOMAIN": "EX",
    "USUBJID": "CDISC004",
    "SPDEVID": "DEV0004",
    "EXSEQ": 120.0,
    "EXTRT": "PLACEBO",
    "EXDOSE": 5.397605346934028e-79,
    "EXDOSU": "mg",
    "EXDOSFRM": "INJECTION",
    "EXDOSFRQ": "QD",
    "EXROUTE": "SUBCUTANEOUS",
    "EXLOT": "SDS580-485",
    "EPOCH": "TREATMENT",
    "EXSTDTC": "2014-02-04",
    "EXENDTC": "2014-02-04",
    "EXSTDY": 120.0,
    "EXENDY": 120.0
  },
  {
    "STUDYID": "CDISCPILOT01",
    "DOMAIN": "EX",
    "USUBJID": "CDISC004",
    "SPDEVID": "DEV0004",
    "EXSEQ": 121.0,
    "EXTRT": "PLACEBO",
    "EXDOSE": 5.397605346934028e-79,
    "EXDOSU": "mg",
    "EXDOSFRM": "INJECTION",
    "EXDOSFRQ": "QD",
    "EXROUTE": "SUBCUTANEOUS",
    "EXLOT": "SDS580-485",
    "EPOCH": "TREATMENT",
    "EXSTDTC": "2014-02-05",
    "EXENDTC": "2014-02-05",
    "EXSTDY": 121.0,
    "EXENDY": 121.0
  },
  {
    "STUDYID": "CDISCPILOT01",
    "DOMAIN": "EX",
    "USUBJID": "CDISC004",
    "SPDEVID": "DEV0004",
    "EXSEQ": 122.0,
    "EXTRT": "PLACEBO",
    "EXDOSE": 5.397605346934028e-79,
    "EXDOSU": "mg",
    "EXDOSFRM": "INJECTION",
    "EXDOSFRQ": "QD",
    "EXROUTE": "SUBCUTANEOUS",
    "EXLOT": "SDS580-485",
    "EPOCH": "TREATMENT",
    "EXSTDTC": "2014-02-06",
    "EXENDTC": "2014-02-06",
    "EXSTDY": 122.0,
    "EXENDY": 122.0
  },
  {
    "STUDYID": "CDISCPILOT01",
    "DOMAIN": "EX",
    "USUBJID": "CDISC004",
    "SPDEVID": "DEV0004",
    "EXSEQ": 123.0,
    "EXTRT": "PLACEBO",
    "EXDOSE": 5.397605346934028e-79,
    "EXDOSU": "mg",
    "EXDOSFRM": "INJECTION",
    "EXDOSFRQ": "QD",
    "EXROUTE": "SUBCUTANEOUS",
    "EXLOT": "SDS580-485",
    "EPOCH": "TREATMENT",
    "EXSTDTC": "2014-02-07",
    "EXENDTC": "2014-02-07",
    "EXSTDY": 123.0,
    "EXENDY": 123.0
  },
  {
    "STUDYID": "CDISCPILOT01",
    "DOMAIN": "EX",
    "USUBJID": "CDISC004",
    "SPDEVID": "DEV0004",
    "EXSEQ": 124.0,
    "EXTRT": "PLACEBO",
    "EXDOSE": 5.397605346934028e-79,
    "EXDOSU": "mg",
    "EXDOSFRM": "INJECTION",
    "EXDOSFRQ": "QD",
    "EXROUTE": "SUBCUTANEOUS",
    "EXLOT": "SDS580-485",
    "EPOCH": "TREATMENT",
    "EXSTDTC": "2014-02-08",
    "EXENDTC": "2014-02-08",
    "EXSTDY": 124.0,
    "EXENDY": 124.0
  },
  {
    "STUDYID": "CDISCPILOT01",
    "DOMAIN": "EX",
    "USUBJID": "CDISC004",
    "SPDEVID": "DEV0004",
    "EXSEQ": 125.0,
    "EXTRT": "PLACEBO",
    "EXDOSE": 5.397605346934028e-79,
    "EXDOSU": "mg",
    "EXDOSFRM": "INJECTION",
    "EXDOSFRQ": "QD",
    "EXROUTE": "SUBCUTANEOUS",
    "EXLOT": "SDS580-485",
    "EPOCH": "TREATMENT",
    "EXSTDTC": "2014-02-09",
    "EXENDTC": "2014-02-09",
    "EXSTDY": 125.0,
    "EXENDY": 125.0
  },
  {
    "STUDYID": "CDISCPILOT01",
    "DOMAIN": "EX",
    "USUBJID": "CDISC004",
    "SPDEVID": "DEV0004",
    "EXSEQ": 126.0,
    "EXTRT": "PLACEBO",
    "EXDOSE": 5.397605346934028e-79,
    "EXDOSU": "mg",
    "EXDOSFRM": "INJECTION",
    "EXDOSFRQ": "QD",
    "EXROUTE": "SUBCUTANEOUS",
    "EXLOT": "SDS580-485",
    "EPOCH": "TREATMENT",
    "EXSTDTC": "2014-02-10",
    "EXENDTC": "2014-02-10",
    "EXSTDY": 126.0,
    "EXENDY": 126.0
  },
  {
    "STUDYID": "CDISCPILOT01",
    "DOMAIN": "EX",
    "USUBJID": "CDISC004",
    "SPDEVID": "DEV0004",
    "EXSEQ": 127.0,
    "EXTRT": "PLACEBO",
    "EXDOSE": 5.397605346934028e-79,
    "EXDOSU": "mg",
    "EXDOSFRM": "INJECTION",
    "EXDOSFRQ": "QD",
    "EXROUTE": "SUBCUTANEOUS",
    "EXLOT": "SDS580-485",
    "EPOCH": "TREATMENT",
    "EXSTDTC": "2014-02-11",
    "EXENDTC": "2014-02-11",
    "EXSTDY": 127.0,
    "EXENDY": 127.0
  },
  {
    "STUDYID": "CDISCPILOT01",
    "DOMAIN": "EX",
    "USUBJID": "CDISC004",
    "SPDEVID": "DEV0004",
    "EXSEQ": 128.0,
    "EXTRT": "PLACEBO",
    "EXDOSE": 5.397605346934028e-79,
    "EXDOSU": "mg",
    "EXDOSFRM": "INJECTION",
    "EXDOSFRQ": "QD",
    "EXROUTE": "SUBCUTANEOUS",
    "EXLOT": "SDS580-485",
    "EPOCH": "TREATMENT",
    "EXSTDTC": "2014-02-12",
    "EXENDTC": "2014-02-12",
    "EXSTDY": 128.0,
    "EXENDY": 128.0
  },
  {
    "STUDYID": "CDISCPILOT01",
    "DOMAIN": "EX",
    "USUBJID": "CDISC004",
    "SPDEVID": "DEV0004",
    "EXSEQ": 129.0,
    "EXTRT": "PLACEBO",
    "EXDOSE": 5.397605346934028e-79,
    "EXDOSU": "mg",
    "EXDOSFRM": "INJECTION",
    "EXDOSFRQ": "QD",
    "EXROUTE": "SUBCUTANEOUS",
    "EXLOT": "SDS580-485",
    "EPOCH": "TREATMENT",
    "EXSTDTC": "2014-02-13",
    "EXENDTC": "2014-02-13",
    "EXSTDY": 129.0,
    "EXENDY": 129.0
  },
  {
    "STUDYID": "CDISCPILOT01",
    "DOMAIN": "EX",
    "USUBJID": "CDISC004",
    "SPDEVID": "DEV0004",
    "EXSEQ": 130.0,
    "EXTRT": "PLACEBO",
    "EXDOSE": 5.397605346934028e-79,
    "EXDOSU": "mg",
    "EXDOSFRM": "INJECTION",
    "EXDOSFRQ": "QD",
    "EXROUTE": "SUBCUTANEOUS",
    "EXLOT": "SDS580-485",
    "EPOCH": "TREATMENT",
    "EXSTDTC": "2014-02-14",
    "EXENDTC": "2014-02-14",
    "EXSTDY": 130.0,
    "EXENDY": 130.0
  },
  {
    "STUDYID": "CDISCPILOT01",
    "DOMAIN": "EX",
    "USUBJID": "CDISC004",
    "SPDEVID": "DEV0004",
    "EXSEQ": 131.0,
    "EXTRT": "PLACEBO",
    "EXDOSE": 5.397605346934028e-79,
    "EXDOSU": "mg",
    "EXDOSFRM": "INJECTION",
    "EXDOSFRQ": "QD",
    "EXROUTE": "SUBCUTANEOUS",
    "EXLOT": "SDS580-485",
    "EPOCH": "TREATMENT",
    "EXSTDTC": "2014-02-15",
    "EXENDTC": "2014-02-15",
    "EXSTDY": 131.0,
    "EXENDY": 131.0
  },
  {
    "STUDYID": "CDISCPILOT01",
    "DOMAIN": "EX",
    "USUBJID": "CDISC004",
    "SPDEVID": "DEV0004",
    "EXSEQ": 132.0,
    "EXTRT": "PLACEBO",
    "EXDOSE": 5.397605346934028e-79,
    "EXDOSU": "mg",
    "EXDOSFRM": "INJECTION",
    "EXDOSFRQ": "QD",
    "EXROUTE": "SUBCUTANEOUS",
    "EXLOT": "SDS580-485",
    "EPOCH": "TREATMENT",
    "EXSTDTC": "2014-02-16",
    "EXENDTC": "2014-02-16",
    "EXSTDY": 132.0,
    "EXENDY": 132.0
  },
  {
    "STUDYID": "CDISCPILOT01",
    "DOMAIN": "EX",
    "USUBJID": "CDISC004",
    "SPDEVID": "DEV0004",
    "EXSEQ": 133.0,
    "EXTRT": "PLACEBO",
    "EXDOSE": 5.397605346934028e-79,
    "EXDOSU": "mg",
    "EXDOSFRM": "INJECTION",
    "EXDOSFRQ": "QD",
    "EXROUTE": "SUBCUTANEOUS",
    "EXLOT": "SDS580-485",
    "EPOCH": "TREATMENT",
    "EXSTDTC": "2014-02-17",
    "EXENDTC": "2014-02-17",
    "EXSTDY": 133.0,
    "EXENDY": 133.0
  },
  {
    "STUDYID": "CDISCPILOT01",
    "DOMAIN": "EX",
    "USUBJID": "CDISC004",
    "SPDEVID": "DEV0004",
    "EXSEQ": 134.0,
    "EXTRT": "PLACEBO",
    "EXDOSE": 5.397605346934028e-79,
    "EXDOSU": "mg",
    "EXDOSFRM": "INJECTION",
    "EXDOSFRQ": "QD",
    "EXROUTE": "SUBCUTANEOUS",
    "EXLOT": "SDS580-485",
    "EPOCH": "TREATMENT",
    "EXSTDTC": "2014-02-18",
    "EXENDTC": "2014-02-18",
    "EXSTDY": 134.0,
    "EXENDY": 134.0
  },
  {
    "STUDYID": "CDISCPILOT01",
    "DOMAIN": "EX",
    "USUBJID": "CDISC004",
    "SPDEVID": "DEV0004",
    "EXSEQ": 135.0,
    "EXTRT": "PLACEBO",
    "EXDOSE": 5.397605346934028e-79,
    "EXDOSU": "mg",
    "EXDOSFRM": "INJECTION",
    "EXDOSFRQ": "QD",
    "EXROUTE": "SUBCUTANEOUS",
    "EXLOT": "SDS580-485",
    "EPOCH": "TREATMENT",
    "EXSTDTC": "2014-02-19",
    "EXENDTC": "2014-02-19",
    "EXSTDY": 135.0,
    "EXENDY": 135.0
  },
  {
    "STUDYID": "CDISCPILOT01",
    "DOMAIN": "EX",
    "USUBJID": "CDISC004",
    "SPDEVID": "DEV0004",
    "EXSEQ": 136.0,
    "EXTRT": "PLACEBO",
    "EXDOSE": 5.397605346934028e-79,
    "EXDOSU": "mg",
    "EXDOSFRM": "INJECTION",
    "EXDOSFRQ": "QD",
    "EXROUTE": "SUBCUTANEOUS",
    "EXLOT": "SDS580-485",
    "EPOCH": "TREATMENT",
    "EXSTDTC": "2014-02-20",
    "EXENDTC": "2014-02-20",
    "EXSTDY": 136.0,
    "EXENDY": 136.0
  },
  {
    "STUDYID": "CDISCPILOT01",
    "DOMAIN": "EX",
    "USUBJID": "CDISC004",
    "SPDEVID": "DEV0004",
    "EXSEQ": 137.0,
    "EXTRT": "PLACEBO",
    "EXDOSE": 5.397605346934028e-79,
    "EXDOSU": "mg",
    "EXDOSFRM": "INJECTION",
    "EXDOSFRQ": "QD",
    "EXROUTE": "SUBCUTANEOUS",
    "EXLOT": "SDS580-485",
    "EPOCH": "TREATMENT",
    "EXSTDTC": "2014-02-21",
    "EXENDTC": "2014-02-21",
    "EXSTDY": 137.0,
    "EXENDY": 137.0
  },
  {
    "STUDYID": "CDISCPILOT01",
    "DOMAIN": "EX",
    "USUBJID": "CDISC004",
    "SPDEVID": "DEV0004",
    "EXSEQ": 138.0,
    "EXTRT": "PLACEBO",
    "EXDOSE": 5.397605346934028e-79,
    "EXDOSU": "mg",
    "EXDOSFRM": "INJECTION",
    "EXDOSFRQ": "QD",
    "EXROUTE": "SUBCUTANEOUS",
    "EXLOT": "SDS580-485",
    "EPOCH": "TREATMENT",
    "EXSTDTC": "2014-02-22",
    "EXENDTC": "2014-02-22",
    "EXSTDY": 138.0,
    "EXENDY": 138.0
  },
  {
    "STUDYID": "CDISCPILOT01",
    "DOMAIN": "EX",
    "USUBJID": "CDISC004",
    "SPDEVID": "DEV0004",
    "EXSEQ": 139.0,
    "EXTRT": "PLACEBO",
    "EXDOSE": 5.397605346934028e-79,
    "EXDOSU": "mg",
    "EXDOSFRM": "INJECTION",
    "EXDOSFRQ": "QD",
    "EXROUTE": "SUBCUTANEOUS",
    "EXLOT": "SDS580-485",
    "EPOCH": "TREATMENT",
    "EXSTDTC": "2014-02-23",
    "EXENDTC": "2014-02-23",
    "EXSTDY": 139.0,
    "EXENDY": 139.0
  },
  {
    "STUDYID": "CDISCPILOT01",
    "DOMAIN": "EX",
    "USUBJID": "CDISC004",
    "SPDEVID": "DEV0004",
    "EXSEQ": 140.0,
    "EXTRT": "PLACEBO",
    "EXDOSE": 5.397605346934028e-79,
    "EXDOSU": "mg",
    "EXDOSFRM": "INJECTION",
    "EXDOSFRQ": "QD",
    "EXROUTE": "SUBCUTANEOUS",
    "EXLOT": "SDS580-485",
    "EPOCH": "TREATMENT",
    "EXSTDTC": "2014-02-24",
    "EXENDTC": "2014-02-24",
    "EXSTDY": 140.0,
    "EXENDY": 140.0
  },
  {
    "STUDYID": "CDISCPILOT01",
    "DOMAIN": "EX",
    "USUBJID": "CDISC004",
    "SPDEVID": "DEV0004",
    "EXSEQ": 141.0,
    "EXTRT": "PLACEBO",
    "EXDOSE": 5.397605346934028e-79,
    "EXDOSU": "mg",
    "EXDOSFRM": "INJECTION",
    "EXDOSFRQ": "QD",
    "EXROUTE": "SUBCUTANEOUS",
    "EXLOT": "SDS580-485",
    "EPOCH": "TREATMENT",
    "EXSTDTC": "2014-02-25",
    "EXENDTC": "2014-02-25",
    "EXSTDY": 141.0,
    "EXENDY": 141.0
  },
  {
    "STUDYID": "CDISCPILOT01",
    "DOMAIN": "EX",
    "USUBJID": "CDISC004",
    "SPDEVID": "DEV0004",
    "EXSEQ": 142.0,
    "EXTRT": "PLACEBO",
    "EXDOSE": 5.397605346934028e-79,
    "EXDOSU": "mg",
    "EXDOSFRM": "INJECTION",
    "EXDOSFRQ": "QD",
    "EXROUTE": "SUBCUTANEOUS",
    "EXLOT": "SDS580-485",
    "EPOCH": "TREATMENT",
    "EXSTDTC": "2014-02-26",
    "EXENDTC": "2014-02-26",
    "EXSTDY": 142.0,
    "EXENDY": 142.0
  },
  {
    "STUDYID": "CDISCPILOT01",
    "DOMAIN": "EX",
    "USUBJID": "CDISC004",
    "SPDEVID": "DEV0004",
    "EXSEQ": 143.0,
    "EXTRT": "PLACEBO",
    "EXDOSE": 5.397605346934028e-79,
    "EXDOSU": "mg",
    "EXDOSFRM": "INJECTION",
    "EXDOSFRQ": "QD",
    "EXROUTE": "SUBCUTANEOUS",
    "EXLOT": "SDS580-485",
    "EPOCH": "TREATMENT",
    "EXSTDTC": "2014-02-27",
    "EXENDTC": "2014-02-27",
    "EXSTDY": 143.0,
    "EXENDY": 143.0
  },
  {
    "STUDYID": "CDISCPILOT01",
    "DOMAIN": "EX",
    "USUBJID": "CDISC004",
    "SPDEVID": "DEV0004",
    "EXSEQ": 144.0,
    "EXTRT": "PLACEBO",
    "EXDOSE": 5.397605346934028e-79,
    "EXDOSU": "mg",
    "EXDOSFRM": "INJECTION",
    "EXDOSFRQ": "QD",
    "EXROUTE": "SUBCUTANEOUS",
    "EXLOT": "SDS580-485",
    "EPOCH": "TREATMENT",
    "EXSTDTC": "2014-02-28",
    "EXENDTC": "2014-02-28",
    "EXSTDY": 144.0,
    "EXENDY": 144.0
  },
  {
    "STUDYID": "CDISCPILOT01",
    "DOMAIN": "EX",
    "USUBJID": "CDISC004",
    "SPDEVID": "DEV0004",
    "EXSEQ": 145.0,
    "EXTRT": "PLACEBO",
    "EXDOSE": 5.397605346934028e-79,
    "EXDOSU": "mg",
    "EXDOSFRM": "INJECTION",
    "EXDOSFRQ": "QD",
    "EXROUTE": "SUBCUTANEOUS",
    "EXLOT": "SDS580-485",
    "EPOCH": "TREATMENT",
    "EXSTDTC": "2014-03-01",
    "EXENDTC": "2014-03-01",
    "EXSTDY": 145.0,
    "EXENDY": 145.0
  },
  {
    "STUDYID": "CDISCPILOT01",
    "DOMAIN": "EX",
    "USUBJID": "CDISC004",
    "SPDEVID": "DEV0004",
    "EXSEQ": 146.0,
    "EXTRT": "PLACEBO",
    "EXDOSE": 5.397605346934028e-79,
    "EXDOSU": "mg",
    "EXDOSFRM": "INJECTION",
    "EXDOSFRQ": "QD",
    "EXROUTE": "SUBCUTANEOUS",
    "EXLOT": "SDS580-485",
    "EPOCH": "TREATMENT",
    "EXSTDTC": "2014-03-02",
    "EXENDTC": "2014-03-02",
    "EXSTDY": 146.0,
    "EXENDY": 146.0
  },
  {
    "STUDYID": "CDISCPILOT01",
    "DOMAIN": "EX",
    "USUBJID": "CDISC004",
    "SPDEVID": "DEV0004",
    "EXSEQ": 147.0,
    "EXTRT": "PLACEBO",
    "EXDOSE": 5.397605346934028e-79,
    "EXDOSU": "mg",
    "EXDOSFRM": "INJECTION",
    "EXDOSFRQ": "QD",
    "EXROUTE": "SUBCUTANEOUS",
    "EXLOT": "SDS580-485",
    "EPOCH": "TREATMENT",
    "EXSTDTC": "2014-03-03",
    "EXENDTC": "2014-03-03",
    "EXSTDY": 147.0,
    "EXENDY": 147.0
  },
  {
    "STUDYID": "CDISCPILOT01",
    "DOMAIN": "EX",
    "USUBJID": "CDISC004",
    "SPDEVID": "DEV0004",
    "EXSEQ": 148.0,
    "EXTRT": "PLACEBO",
    "EXDOSE": 5.397605346934028e-79,
    "EXDOSU": "mg",
    "EXDOSFRM": "INJECTION",
    "EXDOSFRQ": "QD",
    "EXROUTE": "SUBCUTANEOUS",
    "EXLOT": "SDS580-485",
    "EPOCH": "TREATMENT",
    "EXSTDTC": "2014-03-04",
    "EXENDTC": "2014-03-04",
    "EXSTDY": 148.0,
    "EXENDY": 148.0
  },
  {
    "STUDYID": "CDISCPILOT01",
    "DOMAIN": "EX",
    "USUBJID": "CDISC004",
    "SPDEVID": "DEV0004",
    "EXSEQ": 149.0,
    "EXTRT": "PLACEBO",
    "EXDOSE": 5.397605346934028e-79,
    "EXDOSU": "mg",
    "EXDOSFRM": "INJECTION",
    "EXDOSFRQ": "QD",
    "EXROUTE": "SUBCUTANEOUS",
    "EXLOT": "SDS580-485",
    "EPOCH": "TREATMENT",
    "EXSTDTC": "2014-03-05",
    "EXENDTC": "2014-03-05",
    "EXSTDY": 149.0,
    "EXENDY": 149.0
  },
  {
    "STUDYID": "CDISCPILOT01",
    "DOMAIN": "EX",
    "USUBJID": "CDISC004",
    "SPDEVID": "DEV0004",
    "EXSEQ": 150.0,
    "EXTRT": "PLACEBO",
    "EXDOSE": 5.397605346934028e-79,
    "EXDOSU": "mg",
    "EXDOSFRM": "INJECTION",
    "EXDOSFRQ": "QD",
    "EXROUTE": "SUBCUTANEOUS",
    "EXLOT": "SDS580-485",
    "EPOCH": "TREATMENT",
    "EXSTDTC": "2014-03-06",
    "EXENDTC": "2014-03-06",
    "EXSTDY": 150.0,
    "EXENDY": 150.0
  },
  {
    "STUDYID": "CDISCPILOT01",
    "DOMAIN": "EX",
    "USUBJID": "CDISC004",
    "SPDEVID": "DEV0004",
    "EXSEQ": 151.0,
    "EXTRT": "PLACEBO",
    "EXDOSE": 5.397605346934028e-79,
    "EXDOSU": "mg",
    "EXDOSFRM": "INJECTION",
    "EXDOSFRQ": "QD",
    "EXROUTE": "SUBCUTANEOUS",
    "EXLOT": "SDS580-485",
    "EPOCH": "TREATMENT",
    "EXSTDTC": "2014-03-07",
    "EXENDTC": "2014-03-07",
    "EXSTDY": 151.0,
    "EXENDY": 151.0
  },
  {
    "STUDYID": "CDISCPILOT01",
    "DOMAIN": "EX",
    "USUBJID": "CDISC004",
    "SPDEVID": "DEV0004",
    "EXSEQ": 152.0,
    "EXTRT": "PLACEBO",
    "EXDOSE": 5.397605346934028e-79,
    "EXDOSU": "mg",
    "EXDOSFRM": "INJECTION",
    "EXDOSFRQ": "QD",
    "EXROUTE": "SUBCUTANEOUS",
    "EXLOT": "SDS580-485",
    "EPOCH": "TREATMENT",
    "EXSTDTC": "2014-03-08",
    "EXENDTC": "2014-03-08",
    "EXSTDY": 152.0,
    "EXENDY": 152.0
  },
  {
    "STUDYID": "CDISCPILOT01",
    "DOMAIN": "EX",
    "USUBJID": "CDISC004",
    "SPDEVID": "DEV0004",
    "EXSEQ": 153.0,
    "EXTRT": "PLACEBO",
    "EXDOSE": 5.397605346934028e-79,
    "EXDOSU": "mg",
    "EXDOSFRM": "INJECTION",
    "EXDOSFRQ": "QD",
    "EXROUTE": "SUBCUTANEOUS",
    "EXLOT": "SDS580-485",
    "EPOCH": "TREATMENT",
    "EXSTDTC": "2014-03-09",
    "EXENDTC": "2014-03-09",
    "EXSTDY": 153.0,
    "EXENDY": 153.0
  },
  {
    "STUDYID": "CDISCPILOT01",
    "DOMAIN": "EX",
    "USUBJID": "CDISC004",
    "SPDEVID": "DEV0004",
    "EXSEQ": 154.0,
    "EXTRT": "PLACEBO",
    "EXDOSE": 5.397605346934028e-79,
    "EXDOSU": "mg",
    "EXDOSFRM": "INJECTION",
    "EXDOSFRQ": "QD",
    "EXROUTE": "SUBCUTANEOUS",
    "EXLOT": "SDS580-485",
    "EPOCH": "TREATMENT",
    "EXSTDTC": "2014-03-10",
    "EXENDTC": "2014-03-10",
    "EXSTDY": 154.0,
    "EXENDY": 154.0
  },
  {
    "STUDYID": "CDISCPILOT01",
    "DOMAIN": "EX",
    "USUBJID": "CDISC004",
    "SPDEVID": "DEV0004",
    "EXSEQ": 155.0,
    "EXTRT": "PLACEBO",
    "EXDOSE": 5.397605346934028e-79,
    "EXDOSU": "mg",
    "EXDOSFRM": "INJECTION",
    "EXDOSFRQ": "QD",
    "EXROUTE": "SUBCUTANEOUS",
    "EXLOT": "SDS580-485",
    "EPOCH": "TREATMENT",
    "EXSTDTC": "2014-03-11",
    "EXENDTC": "2014-03-11",
    "EXSTDY": 155.0,
    "EXENDY": 155.0
  },
  {
    "STUDYID": "CDISCPILOT01",
    "DOMAIN": "EX",
    "USUBJID": "CDISC004",
    "SPDEVID": "DEV0004",
    "EXSEQ": 156.0,
    "EXTRT": "PLACEBO",
    "EXDOSE": 5.397605346934028e-79,
    "EXDOSU": "mg",
    "EXDOSFRM": "INJECTION",
    "EXDOSFRQ": "QD",
    "EXROUTE": "SUBCUTANEOUS",
    "EXLOT": "SDS580-485",
    "EPOCH": "TREATMENT",
    "EXSTDTC": "2014-03-12",
    "EXENDTC": "2014-03-12",
    "EXSTDY": 156.0,
    "EXENDY": 156.0
  },
  {
    "STUDYID": "CDISCPILOT01",
    "DOMAIN": "EX",
    "USUBJID": "CDISC004",
    "SPDEVID": "DEV0004",
    "EXSEQ": 157.0,
    "EXTRT": "PLACEBO",
    "EXDOSE": 5.397605346934028e-79,
    "EXDOSU": "mg",
    "EXDOSFRM": "INJECTION",
    "EXDOSFRQ": "QD",
    "EXROUTE": "SUBCUTANEOUS",
    "EXLOT": "SDS580-485",
    "EPOCH": "TREATMENT",
    "EXSTDTC": "2014-03-13",
    "EXENDTC": "2014-03-13",
    "EXSTDY": 157.0,
    "EXENDY": 157.0
  },
  {
    "STUDYID": "CDISCPILOT01",
    "DOMAIN": "EX",
    "USUBJID": "CDISC004",
    "SPDEVID": "DEV0004",
    "EXSEQ": 158.0,
    "EXTRT": "PLACEBO",
    "EXDOSE": 5.397605346934028e-79,
    "EXDOSU": "mg",
    "EXDOSFRM": "INJECTION",
    "EXDOSFRQ": "QD",
    "EXROUTE": "SUBCUTANEOUS",
    "EXLOT": "SDS580-485",
    "EPOCH": "TREATMENT",
    "EXSTDTC": "2014-03-14",
    "EXENDTC": "2014-03-14",
    "EXSTDY": 158.0,
    "EXENDY": 158.0
  },
  {
    "STUDYID": "CDISCPILOT01",
    "DOMAIN": "EX",
    "USUBJID": "CDISC004",
    "SPDEVID": "DEV0004",
    "EXSEQ": 159.0,
    "EXTRT": "PLACEBO",
    "EXDOSE": 5.397605346934028e-79,
    "EXDOSU": "mg",
    "EXDOSFRM": "INJECTION",
    "EXDOSFRQ": "QD",
    "EXROUTE": "SUBCUTANEOUS",
    "EXLOT": "SDS580-485",
    "EPOCH": "TREATMENT",
    "EXSTDTC": "2014-03-15",
    "EXENDTC": "2014-03-15",
    "EXSTDY": 159.0,
    "EXENDY": 159.0
  },
  {
    "STUDYID": "CDISCPILOT01",
    "DOMAIN": "EX",
    "USUBJID": "CDISC004",
    "SPDEVID": "DEV0004",
    "EXSEQ": 160.0,
    "EXTRT": "PLACEBO",
    "EXDOSE": 5.397605346934028e-79,
    "EXDOSU": "mg",
    "EXDOSFRM": "INJECTION",
    "EXDOSFRQ": "QD",
    "EXROUTE": "SUBCUTANEOUS",
    "EXLOT": "SDS580-485",
    "EPOCH": "TREATMENT",
    "EXSTDTC": "2014-03-16",
    "EXENDTC": "2014-03-16",
    "EXSTDY": 160.0,
    "EXENDY": 160.0
  },
  {
    "STUDYID": "CDISCPILOT01",
    "DOMAIN": "EX",
    "USUBJID": "CDISC004",
    "SPDEVID": "DEV0004",
    "EXSEQ": 161.0,
    "EXTRT": "PLACEBO",
    "EXDOSE": 5.397605346934028e-79,
    "EXDOSU": "mg",
    "EXDOSFRM": "INJECTION",
    "EXDOSFRQ": "QD",
    "EXROUTE": "SUBCUTANEOUS",
    "EXLOT": "SDS580-485",
    "EPOCH": "TREATMENT",
    "EXSTDTC": "2014-03-17",
    "EXENDTC": "2014-03-17",
    "EXSTDY": 161.0,
    "EXENDY": 161.0
  },
  {
    "STUDYID": "CDISCPILOT01",
    "DOMAIN": "EX",
    "USUBJID": "CDISC004",
    "SPDEVID": "DEV0004",
    "EXSEQ": 162.0,
    "EXTRT": "PLACEBO",
    "EXDOSE": 5.397605346934028e-79,
    "EXDOSU": "mg",
    "EXDOSFRM": "INJECTION",
    "EXDOSFRQ": "QD",
    "EXROUTE": "SUBCUTANEOUS",
    "EXLOT": "SDS580-485",
    "EPOCH": "TREATMENT",
    "EXSTDTC": "2014-03-18",
    "EXENDTC": "2014-03-18",
    "EXSTDY": 162.0,
    "EXENDY": 162.0
  },
  {
    "STUDYID": "CDISCPILOT01",
    "DOMAIN": "EX",
    "USUBJID": "CDISC005",
    "SPDEVID": "DEV0005",
    "EXSEQ": 1.0,
    "EXTRT": "ZANOMALINE",
    "EXDOSE": 54.0,
    "EXDOSU": "mg",
    "EXDOSFRM": "INJECTION",
    "EXDOSFRQ": "QD",
    "EXROUTE": "SUBCUTANEOUS",
    "EXLOT": "SDS580-359",
    "EPOCH": "TREATMENT",
    "EXSTDTC": "2013-02-04",
    "EXENDTC": "2013-02-04",
    "EXSTDY": 1.0,
    "EXENDY": 1.0
  },
  {
    "STUDYID": "CDISCPILOT01",
    "DOMAIN": "EX",
    "USUBJID": "CDISC005",
    "SPDEVID": "DEV0005",
    "EXSEQ": 2.0,
    "EXTRT": "ZANOMALINE",
    "EXDOSE": 54.0,
    "EXDOSU": "mg",
    "EXDOSFRM": "INJECTION",
    "EXDOSFRQ": "QD",
    "EXROUTE": "SUBCUTANEOUS",
    "EXLOT": "SDS580-359",
    "EPOCH": "TREATMENT",
    "EXSTDTC": "2013-02-05",
    "EXENDTC": "2013-02-05",
    "EXSTDY": 2.0,
    "EXENDY": 2.0
  },
  {
    "STUDYID": "CDISCPILOT01",
    "DOMAIN": "EX",
    "USUBJID": "CDISC005",
    "SPDEVID": "DEV0005",
    "EXSEQ": 3.0,
    "EXTRT": "ZANOMALINE",
    "EXDOSE": 54.0,
    "EXDOSU": "mg",
    "EXDOSFRM": "INJECTION",
    "EXDOSFRQ": "QD",
    "EXROUTE": "SUBCUTANEOUS",
    "EXLOT": "SDS580-359",
    "EPOCH": "TREATMENT",
    "EXSTDTC": "2013-02-06",
    "EXENDTC": "2013-02-06",
    "EXSTDY": 3.0,
    "EXENDY": 3.0
  },
  {
    "STUDYID": "CDISCPILOT01",
    "DOMAIN": "EX",
    "USUBJID": "CDISC005",
    "SPDEVID": "DEV0005",
    "EXSEQ": 4.0,
    "EXTRT": "ZANOMALINE",
    "EXDOSE": 54.0,
    "EXDOSU": "mg",
    "EXDOSFRM": "INJECTION",
    "EXDOSFRQ": "QD",
    "EXROUTE": "SUBCUTANEOUS",
    "EXLOT": "SDS580-359",
    "EPOCH": "TREATMENT",
    "EXSTDTC": "2013-02-07",
    "EXENDTC": "2013-02-07",
    "EXSTDY": 4.0,
    "EXENDY": 4.0
  },
  {
    "STUDYID": "CDISCPILOT01",
    "DOMAIN": "EX",
    "USUBJID": "CDISC005",
    "SPDEVID": "DEV0005",
    "EXSEQ": 5.0,
    "EXTRT": "ZANOMALINE",
    "EXDOSE": 54.0,
    "EXDOSU": "mg",
    "EXDOSFRM": "INJECTION",
    "EXDOSFRQ": "QD",
    "EXROUTE": "SUBCUTANEOUS",
    "EXLOT": "SDS580-359",
    "EPOCH": "TREATMENT",
    "EXSTDTC": "2013-02-08",
    "EXENDTC": "2013-02-08",
    "EXSTDY": 5.0,
    "EXENDY": 5.0
  },
  {
    "STUDYID": "CDISCPILOT01",
    "DOMAIN": "EX",
    "USUBJID": "CDISC005",
    "SPDEVID": "DEV0005",
    "EXSEQ": 6.0,
    "EXTRT": "ZANOMALINE",
    "EXDOSE": 54.0,
    "EXDOSU": "mg",
    "EXDOSFRM": "INJECTION",
    "EXDOSFRQ": "QD",
    "EXROUTE": "SUBCUTANEOUS",
    "EXLOT": "SDS580-359",
    "EPOCH": "TREATMENT",
    "EXSTDTC": "2013-02-09",
    "EXENDTC": "2013-02-09",
    "EXSTDY": 6.0,
    "EXENDY": 6.0
  },
  {
    "STUDYID": "CDISCPILOT01",
    "DOMAIN": "EX",
    "USUBJID": "CDISC005",
    "SPDEVID": "DEV0005",
    "EXSEQ": 7.0,
    "EXTRT": "ZANOMALINE",
    "EXDOSE": 54.0,
    "EXDOSU": "mg",
    "EXDOSFRM": "INJECTION",
    "EXDOSFRQ": "QD",
    "EXROUTE": "SUBCUTANEOUS",
    "EXLOT": "SDS580-359",
    "EPOCH": "TREATMENT",
    "EXSTDTC": "2013-02-10",
    "EXENDTC": "2013-02-10",
    "EXSTDY": 7.0,
    "EXENDY": 7.0
  },
  {
    "STUDYID": "CDISCPILOT01",
    "DOMAIN": "EX",
    "USUBJID": "CDISC005",
    "SPDEVID": "DEV0005",
    "EXSEQ": 8.0,
    "EXTRT": "ZANOMALINE",
    "EXDOSE": 54.0,
    "EXDOSU": "mg",
    "EXDOSFRM": "INJECTION",
    "EXDOSFRQ": "QD",
    "EXROUTE": "SUBCUTANEOUS",
    "EXLOT": "SDS580-359",
    "EPOCH": "TREATMENT",
    "EXSTDTC": "2013-02-11",
    "EXENDTC": "2013-02-11",
    "EXSTDY": 8.0,
    "EXENDY": 8.0
  },
  {
    "STUDYID": "CDISCPILOT01",
    "DOMAIN": "EX",
    "USUBJID": "CDISC005",
    "SPDEVID": "DEV0005",
    "EXSEQ": 9.0,
    "EXTRT": "ZANOMALINE",
    "EXDOSE": 54.0,
    "EXDOSU": "mg",
    "EXDOSFRM": "INJECTION",
    "EXDOSFRQ": "QD",
    "EXROUTE": "SUBCUTANEOUS",
    "EXLOT": "SDS580-359",
    "EPOCH": "TREATMENT",
    "EXSTDTC": "2013-02-12",
    "EXENDTC": "2013-02-12",
    "EXSTDY": 9.0,
    "EXENDY": 9.0
  },
  {
    "STUDYID": "CDISCPILOT01",
    "DOMAIN": "EX",
    "USUBJID": "CDISC005",
    "SPDEVID": "DEV0005",
    "EXSEQ": 10.0,
    "EXTRT": "ZANOMALINE",
    "EXDOSE": 54.0,
    "EXDOSU": "mg",
    "EXDOSFRM": "INJECTION",
    "EXDOSFRQ": "QD",
    "EXROUTE": "SUBCUTANEOUS",
    "EXLOT": "SDS580-359",
    "EPOCH": "TREATMENT",
    "EXSTDTC": "2013-02-13",
    "EXENDTC": "2013-02-13",
    "EXSTDY": 10.0,
    "EXENDY": 10.0
  },
  {
    "STUDYID": "CDISCPILOT01",
    "DOMAIN": "EX",
    "USUBJID": "CDISC005",
    "SPDEVID": "DEV0005",
    "EXSEQ": 11.0,
    "EXTRT": "ZANOMALINE",
    "EXDOSE": 54.0,
    "EXDOSU": "mg",
    "EXDOSFRM": "INJECTION",
    "EXDOSFRQ": "QD",
    "EXROUTE": "SUBCUTANEOUS",
    "EXLOT": "SDS580-359",
    "EPOCH": "TREATMENT",
    "EXSTDTC": "2013-02-14",
    "EXENDTC": "2013-02-14",
    "EXSTDY": 11.0,
    "EXENDY": 11.0
  },
  {
    "STUDYID": "CDISCPILOT01",
    "DOMAIN": "EX",
    "USUBJID": "CDISC005",
    "SPDEVID": "DEV0005",
    "EXSEQ": 12.0,
    "EXTRT": "ZANOMALINE",
    "EXDOSE": 54.0,
    "EXDOSU": "mg",
    "EXDOSFRM": "INJECTION",
    "EXDOSFRQ": "QD",
    "EXROUTE": "SUBCUTANEOUS",
    "EXLOT": "SDS580-359",
    "EPOCH": "TREATMENT",
    "EXSTDTC": "2013-02-15",
    "EXENDTC": "2013-02-15",
    "EXSTDY": 12.0,
    "EXENDY": 12.0
  },
  {
    "STUDYID": "CDISCPILOT01",
    "DOMAIN": "EX",
    "USUBJID": "CDISC005",
    "SPDEVID": "DEV0005",
    "EXSEQ": 13.0,
    "EXTRT": "ZANOMALINE",
    "EXDOSE": 54.0,
    "EXDOSU": "mg",
    "EXDOSFRM": "INJECTION",
    "EXDOSFRQ": "QD",
    "EXROUTE": "SUBCUTANEOUS",
    "EXLOT": "SDS580-359",
    "EPOCH": "TREATMENT",
    "EXSTDTC": "2013-02-16",
    "EXENDTC": "2013-02-16",
    "EXSTDY": 13.0,
    "EXENDY": 13.0
  },
  {
    "STUDYID": "CDISCPILOT01",
    "DOMAIN": "EX",
    "USUBJID": "CDISC005",
    "SPDEVID": "DEV0005",
    "EXSEQ": 14.0,
    "EXTRT": "ZANOMALINE",
    "EXDOSE": 54.0,
    "EXDOSU": "mg",
    "EXDOSFRM": "INJECTION",
    "EXDOSFRQ": "QD",
    "EXROUTE": "SUBCUTANEOUS",
    "EXLOT": "SDS580-359",
    "EPOCH": "TREATMENT",
    "EXSTDTC": "2013-02-17",
    "EXENDTC": "2013-02-17",
    "EXSTDY": 14.0,
    "EXENDY": 14.0
  },
  {
    "STUDYID": "CDISCPILOT01",
    "DOMAIN": "EX",
    "USUBJID": "CDISC005",
    "SPDEVID": "DEV0005",
    "EXSEQ": 15.0,
    "EXTRT": "ZANOMALINE",
    "EXDOSE": 54.0,
    "EXDOSU": "mg",
    "EXDOSFRM": "INJECTION",
    "EXDOSFRQ": "QD",
    "EXROUTE": "SUBCUTANEOUS",
    "EXLOT": "SDS580-359",
    "EPOCH": "TREATMENT",
    "EXSTDTC": "2013-02-18",
    "EXENDTC": "2013-02-18",
    "EXSTDY": 15.0,
    "EXENDY": 15.0
  },
  {
    "STUDYID": "CDISCPILOT01",
    "DOMAIN": "EX",
    "USUBJID": "CDISC005",
    "SPDEVID": "DEV0005",
    "EXSEQ": 16.0,
    "EXTRT": "ZANOMALINE",
    "EXDOSE": 54.0,
    "EXDOSU": "mg",
    "EXDOSFRM": "INJECTION",
    "EXDOSFRQ": "QD",
    "EXROUTE": "SUBCUTANEOUS",
    "EXLOT": "SDS580-359",
    "EPOCH": "TREATMENT",
    "EXSTDTC": "2013-02-19",
    "EXENDTC": "2013-02-19",
    "EXSTDY": 16.0,
    "EXENDY": 16.0
  },
  {
    "STUDYID": "CDISCPILOT01",
    "DOMAIN": "EX",
    "USUBJID": "CDISC005",
    "SPDEVID": "DEV0005",
    "EXSEQ": 17.0,
    "EXTRT": "ZANOMALINE",
    "EXDOSE": 81.0,
    "EXDOSU": "mg",
    "EXDOSFRM": "INJECTION",
    "EXDOSFRQ": "QD",
    "EXROUTE": "SUBCUTANEOUS",
    "EXLOT": "SDS580-983",
    "EPOCH": "TREATMENT",
    "EXSTDTC": "2013-02-20",
    "EXENDTC": "2013-02-20",
    "EXSTDY": 17.0,
    "EXENDY": 17.0
  },
  {
    "STUDYID": "CDISCPILOT01",
    "DOMAIN": "EX",
    "USUBJID": "CDISC005",
    "SPDEVID": "DEV0005",
    "EXSEQ": 18.0,
    "EXTRT": "ZANOMALINE",
    "EXDOSE": 81.0,
    "EXDOSU": "mg",
    "EXDOSFRM": "INJECTION",
    "EXDOSFRQ": "QD",
    "EXROUTE": "SUBCUTANEOUS",
    "EXLOT": "SDS580-983",
    "EPOCH": "TREATMENT",
    "EXSTDTC": "2013-02-21",
    "EXENDTC": "2013-02-21",
    "EXSTDY": 18.0,
    "EXENDY": 18.0
  },
  {
    "STUDYID": "CDISCPILOT01",
    "DOMAIN": "EX",
    "USUBJID": "CDISC005",
    "SPDEVID": "DEV0005",
    "EXSEQ": 19.0,
    "EXTRT": "ZANOMALINE",
    "EXDOSE": 81.0,
    "EXDOSU": "mg",
    "EXDOSFRM": "INJECTION",
    "EXDOSFRQ": "QD",
    "EXROUTE": "SUBCUTANEOUS",
    "EXLOT": "SDS580-983",
    "EPOCH": "TREATMENT",
    "EXSTDTC": "2013-02-22",
    "EXENDTC": "2013-02-22",
    "EXSTDY": 19.0,
    "EXENDY": 19.0
  },
  {
    "STUDYID": "CDISCPILOT01",
    "DOMAIN": "EX",
    "USUBJID": "CDISC005",
    "SPDEVID": "DEV0005",
    "EXSEQ": 20.0,
    "EXTRT": "ZANOMALINE",
    "EXDOSE": 81.0,
    "EXDOSU": "mg",
    "EXDOSFRM": "INJECTION",
    "EXDOSFRQ": "QD",
    "EXROUTE": "SUBCUTANEOUS",
    "EXLOT": "SDS580-983",
    "EPOCH": "TREATMENT",
    "EXSTDTC": "2013-02-23",
    "EXENDTC": "2013-02-23",
    "EXSTDY": 20.0,
    "EXENDY": 20.0
  },
  {
    "STUDYID": "CDISCPILOT01",
    "DOMAIN": "EX",
    "USUBJID": "CDISC005",
    "SPDEVID": "DEV0005",
    "EXSEQ": 21.0,
    "EXTRT": "ZANOMALINE",
    "EXDOSE": 81.0,
    "EXDOSU": "mg",
    "EXDOSFRM": "INJECTION",
    "EXDOSFRQ": "QD",
    "EXROUTE": "SUBCUTANEOUS",
    "EXLOT": "SDS580-983",
    "EPOCH": "TREATMENT",
    "EXSTDTC": "2013-02-24",
    "EXENDTC": "2013-02-24",
    "EXSTDY": 21.0,
    "EXENDY": 21.0
  },
  {
    "STUDYID": "CDISCPILOT01",
    "DOMAIN": "EX",
    "USUBJID": "CDISC005",
    "SPDEVID": "DEV0005",
    "EXSEQ": 22.0,
    "EXTRT": "ZANOMALINE",
    "EXDOSE": 81.0,
    "EXDOSU": "mg",
    "EXDOSFRM": "INJECTION",
    "EXDOSFRQ": "QD",
    "EXROUTE": "SUBCUTANEOUS",
    "EXLOT": "SDS580-983",
    "EPOCH": "TREATMENT",
    "EXSTDTC": "2013-02-25",
    "EXENDTC": "2013-02-25",
    "EXSTDY": 22.0,
    "EXENDY": 22.0
  },
  {
    "STUDYID": "CDISCPILOT01",
    "DOMAIN": "EX",
    "USUBJID": "CDISC005",
    "SPDEVID": "DEV0005",
    "EXSEQ": 23.0,
    "EXTRT": "ZANOMALINE",
    "EXDOSE": 81.0,
    "EXDOSU": "mg",
    "EXDOSFRM": "INJECTION",
    "EXDOSFRQ": "QD",
    "EXROUTE": "SUBCUTANEOUS",
    "EXLOT": "SDS580-983",
    "EPOCH": "TREATMENT",
    "EXSTDTC": "2013-02-26",
    "EXENDTC": "2013-02-26",
    "EXSTDY": 23.0,
    "EXENDY": 23.0
  },
  {
    "STUDYID": "CDISCPILOT01",
    "DOMAIN": "EX",
    "USUBJID": "CDISC005",
    "SPDEVID": "DEV0005",
    "EXSEQ": 24.0,
    "EXTRT": "ZANOMALINE",
    "EXDOSE": 81.0,
    "EXDOSU": "mg",
    "EXDOSFRM": "INJECTION",
    "EXDOSFRQ": "QD",
    "EXROUTE": "SUBCUTANEOUS",
    "EXLOT": "SDS580-983",
    "EPOCH": "TREATMENT",
    "EXSTDTC": "2013-02-27",
    "EXENDTC": "2013-02-27",
    "EXSTDY": 24.0,
    "EXENDY": 24.0
  },
  {
    "STUDYID": "CDISCPILOT01",
    "DOMAIN": "EX",
    "USUBJID": "CDISC005",
    "SPDEVID": "DEV0005",
    "EXSEQ": 25.0,
    "EXTRT": "ZANOMALINE",
    "EXDOSE": 81.0,
    "EXDOSU": "mg",
    "EXDOSFRM": "INJECTION",
    "EXDOSFRQ": "QD",
    "EXROUTE": "SUBCUTANEOUS",
    "EXLOT": "SDS580-983",
    "EPOCH": "TREATMENT",
    "EXSTDTC": "2013-02-28",
    "EXENDTC": "2013-02-28",
    "EXSTDY": 25.0,
    "EXENDY": 25.0
  },
  {
    "STUDYID": "CDISCPILOT01",
    "DOMAIN": "EX",
    "USUBJID": "CDISC005",
    "SPDEVID": "DEV0005",
    "EXSEQ": 26.0,
    "EXTRT": "ZANOMALINE",
    "EXDOSE": 81.0,
    "EXDOSU": "mg",
    "EXDOSFRM": "INJECTION",
    "EXDOSFRQ": "QD",
    "EXROUTE": "SUBCUTANEOUS",
    "EXLOT": "SDS580-983",
    "EPOCH": "TREATMENT",
    "EXSTDTC": "2013-03-01",
    "EXENDTC": "2013-03-01",
    "EXSTDY": 26.0,
    "EXENDY": 26.0
  },
  {
    "STUDYID": "CDISCPILOT01",
    "DOMAIN": "EX",
    "USUBJID": "CDISC005",
    "SPDEVID": "DEV0005",
    "EXSEQ": 27.0,
    "EXTRT": "ZANOMALINE",
    "EXDOSE": 81.0,
    "EXDOSU": "mg",
    "EXDOSFRM": "INJECTION",
    "EXDOSFRQ": "QD",
    "EXROUTE": "SUBCUTANEOUS",
    "EXLOT": "SDS580-983",
    "EPOCH": "TREATMENT",
    "EXSTDTC": "2013-03-02",
    "EXENDTC": "2013-03-02",
    "EXSTDY": 27.0,
    "EXENDY": 27.0
  },
  {
    "STUDYID": "CDISCPILOT01",
    "DOMAIN": "EX",
    "USUBJID": "CDISC005",
    "SPDEVID": "DEV0005",
    "EXSEQ": 28.0,
    "EXTRT": "ZANOMALINE",
    "EXDOSE": 81.0,
    "EXDOSU": "mg",
    "EXDOSFRM": "INJECTION",
    "EXDOSFRQ": "QD",
    "EXROUTE": "SUBCUTANEOUS",
    "EXLOT": "SDS580-983",
    "EPOCH": "TREATMENT",
    "EXSTDTC": "2013-03-03",
    "EXENDTC": "2013-03-03",
    "EXSTDY": 28.0,
    "EXENDY": 28.0
  },
  {
    "STUDYID": "CDISCPILOT01",
    "DOMAIN": "EX",
    "USUBJID": "CDISC005",
    "SPDEVID": "DEV0005",
    "EXSEQ": 29.0,
    "EXTRT": "ZANOMALINE",
    "EXDOSE": 81.0,
    "EXDOSU": "mg",
    "EXDOSFRM": "INJECTION",
    "EXDOSFRQ": "QD",
    "EXROUTE": "SUBCUTANEOUS",
    "EXLOT": "SDS580-983",
    "EPOCH": "TREATMENT",
    "EXSTDTC": "2013-03-04",
    "EXENDTC": "2013-03-04",
    "EXSTDY": 29.0,
    "EXENDY": 29.0
  },
  {
    "STUDYID": "CDISCPILOT01",
    "DOMAIN": "EX",
    "USUBJID": "CDISC005",
    "SPDEVID": "DEV0005",
    "EXSEQ": 30.0,
    "EXTRT": "ZANOMALINE",
    "EXDOSE": 81.0,
    "EXDOSU": "mg",
    "EXDOSFRM": "INJECTION",
    "EXDOSFRQ": "QD",
    "EXROUTE": "SUBCUTANEOUS",
    "EXLOT": "SDS580-983",
    "EPOCH": "TREATMENT",
    "EXSTDTC": "2013-03-05",
    "EXENDTC": "2013-03-05",
    "EXSTDY": 30.0,
    "EXENDY": 30.0
  },
  {
    "STUDYID": "CDISCPILOT01",
    "DOMAIN": "EX",
    "USUBJID": "CDISC005",
    "SPDEVID": "DEV0005",
    "EXSEQ": 31.0,
    "EXTRT": "ZANOMALINE",
    "EXDOSE": 81.0,
    "EXDOSU": "mg",
    "EXDOSFRM": "INJECTION",
    "EXDOSFRQ": "QD",
    "EXROUTE": "SUBCUTANEOUS",
    "EXLOT": "SDS580-983",
    "EPOCH": "TREATMENT",
    "EXSTDTC": "2013-03-06",
    "EXENDTC": "2013-03-06",
    "EXSTDY": 31.0,
    "EXENDY": 31.0
  },
  {
    "STUDYID": "CDISCPILOT01",
    "DOMAIN": "EX",
    "USUBJID": "CDISC005",
    "SPDEVID": "DEV0005",
    "EXSEQ": 32.0,
    "EXTRT": "ZANOMALINE",
    "EXDOSE": 81.0,
    "EXDOSU": "mg",
    "EXDOSFRM": "INJECTION",
    "EXDOSFRQ": "QD",
    "EXROUTE": "SUBCUTANEOUS",
    "EXLOT": "SDS580-983",
    "EPOCH": "TREATMENT",
    "EXSTDTC": "2013-03-07",
    "EXENDTC": "2013-03-07",
    "EXSTDY": 32.0,
    "EXENDY": 32.0
  },
  {
    "STUDYID": "CDISCPILOT01",
    "DOMAIN": "EX",
    "USUBJID": "CDISC005",
    "SPDEVID": "DEV0005",
    "EXSEQ": 33.0,
    "EXTRT": "ZANOMALINE",
    "EXDOSE": 81.0,
    "EXDOSU": "mg",
    "EXDOSFRM": "INJECTION",
    "EXDOSFRQ": "QD",
    "EXROUTE": "SUBCUTANEOUS",
    "EXLOT": "SDS580-983",
    "EPOCH": "TREATMENT",
    "EXSTDTC": "2013-03-08",
    "EXENDTC": "2013-03-08",
    "EXSTDY": 33.0,
    "EXENDY": 33.0
  },
  {
    "STUDYID": "CDISCPILOT01",
    "DOMAIN": "EX",
    "USUBJID": "CDISC005",
    "SPDEVID": "DEV0005",
    "EXSEQ": 34.0,
    "EXTRT": "ZANOMALINE",
    "EXDOSE": 81.0,
    "EXDOSU": "mg",
    "EXDOSFRM": "INJECTION",
    "EXDOSFRQ": "QD",
    "EXROUTE": "SUBCUTANEOUS",
    "EXLOT": "SDS580-983",
    "EPOCH": "TREATMENT",
    "EXSTDTC": "2013-03-09",
    "EXENDTC": "2013-03-09",
    "EXSTDY": 34.0,
    "EXENDY": 34.0
  },
  {
    "STUDYID": "CDISCPILOT01",
    "DOMAIN": "EX",
    "USUBJID": "CDISC005",
    "SPDEVID": "DEV0005",
    "EXSEQ": 35.0,
    "EXTRT": "ZANOMALINE",
    "EXDOSE": 81.0,
    "EXDOSU": "mg",
    "EXDOSFRM": "INJECTION",
    "EXDOSFRQ": "QD",
    "EXROUTE": "SUBCUTANEOUS",
    "EXLOT": "SDS580-983",
    "EPOCH": "TREATMENT",
    "EXSTDTC": "2013-03-10",
    "EXENDTC": "2013-03-10",
    "EXSTDY": 35.0,
    "EXENDY": 35.0
  },
  {
    "STUDYID": "CDISCPILOT01",
    "DOMAIN": "EX",
    "USUBJID": "CDISC005",
    "SPDEVID": "DEV0005",
    "EXSEQ": 36.0,
    "EXTRT": "ZANOMALINE",
    "EXDOSE": 81.0,
    "EXDOSU": "mg",
    "EXDOSFRM": "INJECTION",
    "EXDOSFRQ": "QD",
    "EXROUTE": "SUBCUTANEOUS",
    "EXLOT": "SDS580-983",
    "EPOCH": "TREATMENT",
    "EXSTDTC": "2013-03-11",
    "EXENDTC": "2013-03-11",
    "EXSTDY": 36.0,
    "EXENDY": 36.0
  },
  {
    "STUDYID": "CDISCPILOT01",
    "DOMAIN": "EX",
    "USUBJID": "CDISC005",
    "SPDEVID": "DEV0005",
    "EXSEQ": 37.0,
    "EXTRT": "ZANOMALINE",
    "EXDOSE": 81.0,
    "EXDOSU": "mg",
    "EXDOSFRM": "INJECTION",
    "EXDOSFRQ": "QD",
    "EXROUTE": "SUBCUTANEOUS",
    "EXLOT": "SDS580-983",
    "EPOCH": "TREATMENT",
    "EXSTDTC": "2013-03-12",
    "EXENDTC": "2013-03-12",
    "EXSTDY": 37.0,
    "EXENDY": 37.0
  },
  {
    "STUDYID": "CDISCPILOT01",
    "DOMAIN": "EX",
    "USUBJID": "CDISC005",
    "SPDEVID": "DEV0005",
    "EXSEQ": 38.0,
    "EXTRT": "ZANOMALINE",
    "EXDOSE": 81.0,
    "EXDOSU": "mg",
    "EXDOSFRM": "INJECTION",
    "EXDOSFRQ": "QD",
    "EXROUTE": "SUBCUTANEOUS",
    "EXLOT": "SDS580-983",
    "EPOCH": "TREATMENT",
    "EXSTDTC": "2013-03-13",
    "EXENDTC": "2013-03-13",
    "EXSTDY": 38.0,
    "EXENDY": 38.0
  },
  {
    "STUDYID": "CDISCPILOT01",
    "DOMAIN": "EX",
    "USUBJID": "CDISC005",
    "SPDEVID": "DEV0005",
    "EXSEQ": 39.0,
    "EXTRT": "ZANOMALINE",
    "EXDOSE": 81.0,
    "EXDOSU": "mg",
    "EXDOSFRM": "INJECTION",
    "EXDOSFRQ": "QD",
    "EXROUTE": "SUBCUTANEOUS",
    "EXLOT": "SDS580-983",
    "EPOCH": "TREATMENT",
    "EXSTDTC": "2013-03-14",
    "EXENDTC": "2013-03-14",
    "EXSTDY": 39.0,
    "EXENDY": 39.0
  },
  {
    "STUDYID": "CDISCPILOT01",
    "DOMAIN": "EX",
    "USUBJID": "CDISC005",
    "SPDEVID": "DEV0005",
    "EXSEQ": 40.0,
    "EXTRT": "ZANOMALINE",
    "EXDOSE": 81.0,
    "EXDOSU": "mg",
    "EXDOSFRM": "INJECTION",
    "EXDOSFRQ": "QD",
    "EXROUTE": "SUBCUTANEOUS",
    "EXLOT": "SDS580-983",
    "EPOCH": "TREATMENT",
    "EXSTDTC": "2013-03-15",
    "EXENDTC": "2013-03-15",
    "EXSTDY": 40.0,
    "EXENDY": 40.0
  },
  {
    "STUDYID": "CDISCPILOT01",
    "DOMAIN": "EX",
    "USUBJID": "CDISC005",
    "SPDEVID": "DEV0005",
    "EXSEQ": 41.0,
    "EXTRT": "ZANOMALINE",
    "EXDOSE": 81.0,
    "EXDOSU": "mg",
    "EXDOSFRM": "INJECTION",
    "EXDOSFRQ": "QD",
    "EXROUTE": "SUBCUTANEOUS",
    "EXLOT": "SDS580-983",
    "EPOCH": "TREATMENT",
    "EXSTDTC": "2013-03-16",
    "EXENDTC": "2013-03-16",
    "EXSTDY": 41.0,
    "EXENDY": 41.0
  },
  {
    "STUDYID": "CDISCPILOT01",
    "DOMAIN": "EX",
    "USUBJID": "CDISC005",
    "SPDEVID": "DEV0005",
    "EXSEQ": 42.0,
    "EXTRT": "ZANOMALINE",
    "EXDOSE": 81.0,
    "EXDOSU": "mg",
    "EXDOSFRM": "INJECTION",
    "EXDOSFRQ": "QD",
    "EXROUTE": "SUBCUTANEOUS",
    "EXLOT": "SDS580-983",
    "EPOCH": "TREATMENT",
    "EXSTDTC": "2013-03-17",
    "EXENDTC": "2013-03-17",
    "EXSTDY": 42.0,
    "EXENDY": 42.0
  },
  {
    "STUDYID": "CDISCPILOT01",
    "DOMAIN": "EX",
    "USUBJID": "CDISC005",
    "SPDEVID": "DEV0005",
    "EXSEQ": 43.0,
    "EXTRT": "ZANOMALINE",
    "EXDOSE": 81.0,
    "EXDOSU": "mg",
    "EXDOSFRM": "INJECTION",
    "EXDOSFRQ": "QD",
    "EXROUTE": "SUBCUTANEOUS",
    "EXLOT": "SDS580-983",
    "EPOCH": "TREATMENT",
    "EXSTDTC": "2013-03-18",
    "EXENDTC": "2013-03-18",
    "EXSTDY": 43.0,
    "EXENDY": 43.0
  },
  {
    "STUDYID": "CDISCPILOT01",
    "DOMAIN": "EX",
    "USUBJID": "CDISC005",
    "SPDEVID": "DEV0005",
    "EXSEQ": 44.0,
    "EXTRT": "ZANOMALINE",
    "EXDOSE": 81.0,
    "EXDOSU": "mg",
    "EXDOSFRM": "INJECTION",
    "EXDOSFRQ": "QD",
    "EXROUTE": "SUBCUTANEOUS",
    "EXLOT": "SDS580-983",
    "EPOCH": "TREATMENT",
    "EXSTDTC": "2013-03-19",
    "EXENDTC": "2013-03-19",
    "EXSTDY": 44.0,
    "EXENDY": 44.0
  },
  {
    "STUDYID": "CDISCPILOT01",
    "DOMAIN": "EX",
    "USUBJID": "CDISC005",
    "SPDEVID": "DEV0005",
    "EXSEQ": 45.0,
    "EXTRT": "ZANOMALINE",
    "EXDOSE": 81.0,
    "EXDOSU": "mg",
    "EXDOSFRM": "INJECTION",
    "EXDOSFRQ": "QD",
    "EXROUTE": "SUBCUTANEOUS",
    "EXLOT": "SDS580-983",
    "EPOCH": "TREATMENT",
    "EXSTDTC": "2013-03-20",
    "EXENDTC": "2013-03-20",
    "EXSTDY": 45.0,
    "EXENDY": 45.0
  },
  {
    "STUDYID": "CDISCPILOT01",
    "DOMAIN": "EX",
    "USUBJID": "CDISC005",
    "SPDEVID": "DEV0005",
    "EXSEQ": 46.0,
    "EXTRT": "ZANOMALINE",
    "EXDOSE": 81.0,
    "EXDOSU": "mg",
    "EXDOSFRM": "INJECTION",
    "EXDOSFRQ": "QD",
    "EXROUTE": "SUBCUTANEOUS",
    "EXLOT": "SDS580-983",
    "EPOCH": "TREATMENT",
    "EXSTDTC": "2013-03-21",
    "EXENDTC": "2013-03-21",
    "EXSTDY": 46.0,
    "EXENDY": 46.0
  },
  {
    "STUDYID": "CDISCPILOT01",
    "DOMAIN": "EX",
    "USUBJID": "CDISC005",
    "SPDEVID": "DEV0005",
    "EXSEQ": 47.0,
    "EXTRT": "ZANOMALINE",
    "EXDOSE": 81.0,
    "EXDOSU": "mg",
    "EXDOSFRM": "INJECTION",
    "EXDOSFRQ": "QD",
    "EXROUTE": "SUBCUTANEOUS",
    "EXLOT": "SDS580-983",
    "EPOCH": "TREATMENT",
    "EXSTDTC": "2013-03-22",
    "EXENDTC": "2013-03-22",
    "EXSTDY": 47.0,
    "EXENDY": 47.0
  },
  {
    "STUDYID": "CDISCPILOT01",
    "DOMAIN": "EX",
    "USUBJID": "CDISC005",
    "SPDEVID": "DEV0005",
    "EXSEQ": 48.0,
    "EXTRT": "ZANOMALINE",
    "EXDOSE": 81.0,
    "EXDOSU": "mg",
    "EXDOSFRM": "INJECTION",
    "EXDOSFRQ": "QD",
    "EXROUTE": "SUBCUTANEOUS",
    "EXLOT": "SDS580-983",
    "EPOCH": "TREATMENT",
    "EXSTDTC": "2013-03-23",
    "EXENDTC": "2013-03-23",
    "EXSTDY": 48.0,
    "EXENDY": 48.0
  },
  {
    "STUDYID": "CDISCPILOT01",
    "DOMAIN": "EX",
    "USUBJID": "CDISC005",
    "SPDEVID": "DEV0005",
    "EXSEQ": 49.0,
    "EXTRT": "ZANOMALINE",
    "EXDOSE": 81.0,
    "EXDOSU": "mg",
    "EXDOSFRM": "INJECTION",
    "EXDOSFRQ": "QD",
    "EXROUTE": "SUBCUTANEOUS",
    "EXLOT": "SDS580-983",
    "EPOCH": "TREATMENT",
    "EXSTDTC": "2013-03-24",
    "EXENDTC": "2013-03-24",
    "EXSTDY": 49.0,
    "EXENDY": 49.0
  },
  {
    "STUDYID": "CDISCPILOT01",
    "DOMAIN": "EX",
    "USUBJID": "CDISC005",
    "SPDEVID": "DEV0005",
    "EXSEQ": 50.0,
    "EXTRT": "ZANOMALINE",
    "EXDOSE": 81.0,
    "EXDOSU": "mg",
    "EXDOSFRM": "INJECTION",
    "EXDOSFRQ": "QD",
    "EXROUTE": "SUBCUTANEOUS",
    "EXLOT": "SDS580-983",
    "EPOCH": "TREATMENT",
    "EXSTDTC": "2013-03-25",
    "EXENDTC": "2013-03-25",
    "EXSTDY": 50.0,
    "EXENDY": 50.0
  },
  {
    "STUDYID": "CDISCPILOT01",
    "DOMAIN": "EX",
    "USUBJID": "CDISC005",
    "SPDEVID": "DEV0005",
    "EXSEQ": 51.0,
    "EXTRT": "ZANOMALINE",
    "EXDOSE": 81.0,
    "EXDOSU": "mg",
    "EXDOSFRM": "INJECTION",
    "EXDOSFRQ": "QD",
    "EXROUTE": "SUBCUTANEOUS",
    "EXLOT": "SDS580-983",
    "EPOCH": "TREATMENT",
    "EXSTDTC": "2013-03-26",
    "EXENDTC": "2013-03-26",
    "EXSTDY": 51.0,
    "EXENDY": 51.0
  },
  {
    "STUDYID": "CDISCPILOT01",
    "DOMAIN": "EX",
    "USUBJID": "CDISC005",
    "SPDEVID": "DEV0005",
    "EXSEQ": 52.0,
    "EXTRT": "ZANOMALINE",
    "EXDOSE": 81.0,
    "EXDOSU": "mg",
    "EXDOSFRM": "INJECTION",
    "EXDOSFRQ": "QD",
    "EXROUTE": "SUBCUTANEOUS",
    "EXLOT": "SDS580-983",
    "EPOCH": "TREATMENT",
    "EXSTDTC": "2013-03-27",
    "EXENDTC": "2013-03-27",
    "EXSTDY": 52.0,
    "EXENDY": 52.0
  },
  {
    "STUDYID": "CDISCPILOT01",
    "DOMAIN": "EX",
    "USUBJID": "CDISC005",
    "SPDEVID": "DEV0005",
    "EXSEQ": 53.0,
    "EXTRT": "ZANOMALINE",
    "EXDOSE": 81.0,
    "EXDOSU": "mg",
    "EXDOSFRM": "INJECTION",
    "EXDOSFRQ": "QD",
    "EXROUTE": "SUBCUTANEOUS",
    "EXLOT": "SDS580-983",
    "EPOCH": "TREATMENT",
    "EXSTDTC": "2013-03-28",
    "EXENDTC": "2013-03-28",
    "EXSTDY": 53.0,
    "EXENDY": 53.0
  },
  {
    "STUDYID": "CDISCPILOT01",
    "DOMAIN": "EX",
    "USUBJID": "CDISC005",
    "SPDEVID": "DEV0005",
    "EXSEQ": 54.0,
    "EXTRT": "ZANOMALINE",
    "EXDOSE": 81.0,
    "EXDOSU": "mg",
    "EXDOSFRM": "INJECTION",
    "EXDOSFRQ": "QD",
    "EXROUTE": "SUBCUTANEOUS",
    "EXLOT": "SDS580-983",
    "EPOCH": "TREATMENT",
    "EXSTDTC": "2013-03-29",
    "EXENDTC": "2013-03-29",
    "EXSTDY": 54.0,
    "EXENDY": 54.0
  },
  {
    "STUDYID": "CDISCPILOT01",
    "DOMAIN": "EX",
    "USUBJID": "CDISC005",
    "SPDEVID": "DEV0005",
    "EXSEQ": 55.0,
    "EXTRT": "ZANOMALINE",
    "EXDOSE": 81.0,
    "EXDOSU": "mg",
    "EXDOSFRM": "INJECTION",
    "EXDOSFRQ": "QD",
    "EXROUTE": "SUBCUTANEOUS",
    "EXLOT": "SDS580-983",
    "EPOCH": "TREATMENT",
    "EXSTDTC": "2013-03-30",
    "EXENDTC": "2013-03-30",
    "EXSTDY": 55.0,
    "EXENDY": 55.0
  },
  {
    "STUDYID": "CDISCPILOT01",
    "DOMAIN": "EX",
    "USUBJID": "CDISC005",
    "SPDEVID": "DEV0005",
    "EXSEQ": 56.0,
    "EXTRT": "ZANOMALINE",
    "EXDOSE": 81.0,
    "EXDOSU": "mg",
    "EXDOSFRM": "INJECTION",
    "EXDOSFRQ": "QD",
    "EXROUTE": "SUBCUTANEOUS",
    "EXLOT": "SDS580-983",
    "EPOCH": "TREATMENT",
    "EXSTDTC": "2013-03-31",
    "EXENDTC": "2013-03-31",
    "EXSTDY": 56.0,
    "EXENDY": 56.0
  },
  {
    "STUDYID": "CDISCPILOT01",
    "DOMAIN": "EX",
    "USUBJID": "CDISC005",
    "SPDEVID": "DEV0005",
    "EXSEQ": 57.0,
    "EXTRT": "ZANOMALINE",
    "EXDOSE": 81.0,
    "EXDOSU": "mg",
    "EXDOSFRM": "INJECTION",
    "EXDOSFRQ": "QD",
    "EXROUTE": "SUBCUTANEOUS",
    "EXLOT": "SDS580-983",
    "EPOCH": "TREATMENT",
    "EXSTDTC": "2013-04-01",
    "EXENDTC": "2013-04-01",
    "EXSTDY": 57.0,
    "EXENDY": 57.0
  },
  {
    "STUDYID": "CDISCPILOT01",
    "DOMAIN": "EX",
    "USUBJID": "CDISC005",
    "SPDEVID": "DEV0005",
    "EXSEQ": 58.0,
    "EXTRT": "ZANOMALINE",
    "EXDOSE": 81.0,
    "EXDOSU": "mg",
    "EXDOSFRM": "INJECTION",
    "EXDOSFRQ": "QD",
    "EXROUTE": "SUBCUTANEOUS",
    "EXLOT": "SDS580-983",
    "EPOCH": "TREATMENT",
    "EXSTDTC": "2013-04-02",
    "EXENDTC": "2013-04-02",
    "EXSTDY": 58.0,
    "EXENDY": 58.0
  },
  {
    "STUDYID": "CDISCPILOT01",
    "DOMAIN": "EX",
    "USUBJID": "CDISC005",
    "SPDEVID": "DEV0005",
    "EXSEQ": 59.0,
    "EXTRT": "ZANOMALINE",
    "EXDOSE": 81.0,
    "EXDOSU": "mg",
    "EXDOSFRM": "INJECTION",
    "EXDOSFRQ": "QD",
    "EXROUTE": "SUBCUTANEOUS",
    "EXLOT": "SDS580-983",
    "EPOCH": "TREATMENT",
    "EXSTDTC": "2013-04-03",
    "EXENDTC": "2013-04-03",
    "EXSTDY": 59.0,
    "EXENDY": 59.0
  },
  {
    "STUDYID": "CDISCPILOT01",
    "DOMAIN": "EX",
    "USUBJID": "CDISC005",
    "SPDEVID": "DEV0005",
    "EXSEQ": 60.0,
    "EXTRT": "ZANOMALINE",
    "EXDOSE": 81.0,
    "EXDOSU": "mg",
    "EXDOSFRM": "INJECTION",
    "EXDOSFRQ": "QD",
    "EXROUTE": "SUBCUTANEOUS",
    "EXLOT": "SDS580-983",
    "EPOCH": "TREATMENT",
    "EXSTDTC": "2013-04-04",
    "EXENDTC": "2013-04-04",
    "EXSTDY": 60.0,
    "EXENDY": 60.0
  },
  {
    "STUDYID": "CDISCPILOT01",
    "DOMAIN": "EX",
    "USUBJID": "CDISC005",
    "SPDEVID": "DEV0005",
    "EXSEQ": 61.0,
    "EXTRT": "ZANOMALINE",
    "EXDOSE": 81.0,
    "EXDOSU": "mg",
    "EXDOSFRM": "INJECTION",
    "EXDOSFRQ": "QD",
    "EXROUTE": "SUBCUTANEOUS",
    "EXLOT": "SDS580-983",
    "EPOCH": "TREATMENT",
    "EXSTDTC": "2013-04-05",
    "EXENDTC": "2013-04-05",
    "EXSTDY": 61.0,
    "EXENDY": 61.0
  },
  {
    "STUDYID": "CDISCPILOT01",
    "DOMAIN": "EX",
    "USUBJID": "CDISC005",
    "SPDEVID": "DEV0005",
    "EXSEQ": 62.0,
    "EXTRT": "ZANOMALINE",
    "EXDOSE": 81.0,
    "EXDOSU": "mg",
    "EXDOSFRM": "INJECTION",
    "EXDOSFRQ": "QD",
    "EXROUTE": "SUBCUTANEOUS",
    "EXLOT": "SDS580-983",
    "EPOCH": "TREATMENT",
    "EXSTDTC": "2013-04-06",
    "EXENDTC": "2013-04-06",
    "EXSTDY": 62.0,
    "EXENDY": 62.0
  },
  {
    "STUDYID": "CDISCPILOT01",
    "DOMAIN": "EX",
    "USUBJID": "CDISC005",
    "SPDEVID": "DEV0005",
    "EXSEQ": 63.0,
    "EXTRT": "ZANOMALINE",
    "EXDOSE": 81.0,
    "EXDOSU": "mg",
    "EXDOSFRM": "INJECTION",
    "EXDOSFRQ": "QD",
    "EXROUTE": "SUBCUTANEOUS",
    "EXLOT": "SDS580-983",
    "EPOCH": "TREATMENT",
    "EXSTDTC": "2013-04-07",
    "EXENDTC": "2013-04-07",
    "EXSTDY": 63.0,
    "EXENDY": 63.0
  },
  {
    "STUDYID": "CDISCPILOT01",
    "DOMAIN": "EX",
    "USUBJID": "CDISC005",
    "SPDEVID": "DEV0005",
    "EXSEQ": 64.0,
    "EXTRT": "ZANOMALINE",
    "EXDOSE": 81.0,
    "EXDOSU": "mg",
    "EXDOSFRM": "INJECTION",
    "EXDOSFRQ": "QD",
    "EXROUTE": "SUBCUTANEOUS",
    "EXLOT": "SDS580-983",
    "EPOCH": "TREATMENT",
    "EXSTDTC": "2013-04-08",
    "EXENDTC": "2013-04-08",
    "EXSTDY": 64.0,
    "EXENDY": 64.0
  },
  {
    "STUDYID": "CDISCPILOT01",
    "DOMAIN": "EX",
    "USUBJID": "CDISC005",
    "SPDEVID": "DEV0005",
    "EXSEQ": 65.0,
    "EXTRT": "ZANOMALINE",
    "EXDOSE": 81.0,
    "EXDOSU": "mg",
    "EXDOSFRM": "INJECTION",
    "EXDOSFRQ": "QD",
    "EXROUTE": "SUBCUTANEOUS",
    "EXLOT": "SDS580-983",
    "EPOCH": "TREATMENT",
    "EXSTDTC": "2013-04-09",
    "EXENDTC": "2013-04-09",
    "EXSTDY": 65.0,
    "EXENDY": 65.0
  },
  {
    "STUDYID": "CDISCPILOT01",
    "DOMAIN": "EX",
    "USUBJID": "CDISC005",
    "SPDEVID": "DEV0005",
    "EXSEQ": 66.0,
    "EXTRT": "ZANOMALINE",
    "EXDOSE": 81.0,
    "EXDOSU": "mg",
    "EXDOSFRM": "INJECTION",
    "EXDOSFRQ": "QD",
    "EXROUTE": "SUBCUTANEOUS",
    "EXLOT": "SDS580-983",
    "EPOCH": "TREATMENT",
    "EXSTDTC": "2013-04-10",
    "EXENDTC": "2013-04-10",
    "EXSTDY": 66.0,
    "EXENDY": 66.0
  },
  {
    "STUDYID": "CDISCPILOT01",
    "DOMAIN": "EX",
    "USUBJID": "CDISC005",
    "SPDEVID": "DEV0005",
    "EXSEQ": 67.0,
    "EXTRT": "ZANOMALINE",
    "EXDOSE": 81.0,
    "EXDOSU": "mg",
    "EXDOSFRM": "INJECTION",
    "EXDOSFRQ": "QD",
    "EXROUTE": "SUBCUTANEOUS",
    "EXLOT": "SDS580-983",
    "EPOCH": "TREATMENT",
    "EXSTDTC": "2013-04-11",
    "EXENDTC": "2013-04-11",
    "EXSTDY": 67.0,
    "EXENDY": 67.0
  },
  {
    "STUDYID": "CDISCPILOT01",
    "DOMAIN": "EX",
    "USUBJID": "CDISC005",
    "SPDEVID": "DEV0005",
    "EXSEQ": 68.0,
    "EXTRT": "ZANOMALINE",
    "EXDOSE": 81.0,
    "EXDOSU": "mg",
    "EXDOSFRM": "INJECTION",
    "EXDOSFRQ": "QD",
    "EXROUTE": "SUBCUTANEOUS",
    "EXLOT": "SDS580-983",
    "EPOCH": "TREATMENT",
    "EXSTDTC": "2013-04-12",
    "EXENDTC": "2013-04-12",
    "EXSTDY": 68.0,
    "EXENDY": 68.0
  },
  {
    "STUDYID": "CDISCPILOT01",
    "DOMAIN": "EX",
    "USUBJID": "CDISC005",
    "SPDEVID": "DEV0005",
    "EXSEQ": 69.0,
    "EXTRT": "ZANOMALINE",
    "EXDOSE": 81.0,
    "EXDOSU": "mg",
    "EXDOSFRM": "INJECTION",
    "EXDOSFRQ": "QD",
    "EXROUTE": "SUBCUTANEOUS",
    "EXLOT": "SDS580-983",
    "EPOCH": "TREATMENT",
    "EXSTDTC": "2013-04-13",
    "EXENDTC": "2013-04-13",
    "EXSTDY": 69.0,
    "EXENDY": 69.0
  },
  {
    "STUDYID": "CDISCPILOT01",
    "DOMAIN": "EX",
    "USUBJID": "CDISC005",
    "SPDEVID": "DEV0005",
    "EXSEQ": 70.0,
    "EXTRT": "ZANOMALINE",
    "EXDOSE": 81.0,
    "EXDOSU": "mg",
    "EXDOSFRM": "INJECTION",
    "EXDOSFRQ": "QD",
    "EXROUTE": "SUBCUTANEOUS",
    "EXLOT": "SDS580-983",
    "EPOCH": "TREATMENT",
    "EXSTDTC": "2013-04-14",
    "EXENDTC": "2013-04-14",
    "EXSTDY": 70.0,
    "EXENDY": 70.0
  },
  {
    "STUDYID": "CDISCPILOT01",
    "DOMAIN": "EX",
    "USUBJID": "CDISC005",
    "SPDEVID": "DEV0005",
    "EXSEQ": 71.0,
    "EXTRT": "ZANOMALINE",
    "EXDOSE": 81.0,
    "EXDOSU": "mg",
    "EXDOSFRM": "INJECTION",
    "EXDOSFRQ": "QD",
    "EXROUTE": "SUBCUTANEOUS",
    "EXLOT": "SDS580-983",
    "EPOCH": "TREATMENT",
    "EXSTDTC": "2013-04-15",
    "EXENDTC": "2013-04-15",
    "EXSTDY": 71.0,
    "EXENDY": 71.0
  },
  {
    "STUDYID": "CDISCPILOT01",
    "DOMAIN": "EX",
    "USUBJID": "CDISC005",
    "SPDEVID": "DEV0005",
    "EXSEQ": 72.0,
    "EXTRT": "ZANOMALINE",
    "EXDOSE": 81.0,
    "EXDOSU": "mg",
    "EXDOSFRM": "INJECTION",
    "EXDOSFRQ": "QD",
    "EXROUTE": "SUBCUTANEOUS",
    "EXLOT": "SDS580-983",
    "EPOCH": "TREATMENT",
    "EXSTDTC": "2013-04-16",
    "EXENDTC": "2013-04-16",
    "EXSTDY": 72.0,
    "EXENDY": 72.0
  },
  {
    "STUDYID": "CDISCPILOT01",
    "DOMAIN": "EX",
    "USUBJID": "CDISC005",
    "SPDEVID": "DEV0005",
    "EXSEQ": 73.0,
    "EXTRT": "ZANOMALINE",
    "EXDOSE": 81.0,
    "EXDOSU": "mg",
    "EXDOSFRM": "INJECTION",
    "EXDOSFRQ": "QD",
    "EXROUTE": "SUBCUTANEOUS",
    "EXLOT": "SDS580-983",
    "EPOCH": "TREATMENT",
    "EXSTDTC": "2013-04-17",
    "EXENDTC": "2013-04-17",
    "EXSTDY": 73.0,
    "EXENDY": 73.0
  },
  {
    "STUDYID": "CDISCPILOT01",
    "DOMAIN": "EX",
    "USUBJID": "CDISC005",
    "SPDEVID": "DEV0005",
    "EXSEQ": 74.0,
    "EXTRT": "ZANOMALINE",
    "EXDOSE": 81.0,
    "EXDOSU": "mg",
    "EXDOSFRM": "INJECTION",
    "EXDOSFRQ": "QD",
    "EXROUTE": "SUBCUTANEOUS",
    "EXLOT": "SDS580-983",
    "EPOCH": "TREATMENT",
    "EXSTDTC": "2013-04-18",
    "EXENDTC": "2013-04-18",
    "EXSTDY": 74.0,
    "EXENDY": 74.0
  },
  {
    "STUDYID": "CDISCPILOT01",
    "DOMAIN": "EX",
    "USUBJID": "CDISC005",
    "SPDEVID": "DEV0005",
    "EXSEQ": 75.0,
    "EXTRT": "ZANOMALINE",
    "EXDOSE": 81.0,
    "EXDOSU": "mg",
    "EXDOSFRM": "INJECTION",
    "EXDOSFRQ": "QD",
    "EXROUTE": "SUBCUTANEOUS",
    "EXLOT": "SDS580-983",
    "EPOCH": "TREATMENT",
    "EXSTDTC": "2013-04-19",
    "EXENDTC": "2013-04-19",
    "EXSTDY": 75.0,
    "EXENDY": 75.0
  },
  {
    "STUDYID": "CDISCPILOT01",
    "DOMAIN": "EX",
    "USUBJID": "CDISC005",
    "SPDEVID": "DEV0005",
    "EXSEQ": 76.0,
    "EXTRT": "ZANOMALINE",
    "EXDOSE": 81.0,
    "EXDOSU": "mg",
    "EXDOSFRM": "INJECTION",
    "EXDOSFRQ": "QD",
    "EXROUTE": "SUBCUTANEOUS",
    "EXLOT": "SDS580-983",
    "EPOCH": "TREATMENT",
    "EXSTDTC": "2013-04-20",
    "EXENDTC": "2013-04-20",
    "EXSTDY": 76.0,
    "EXENDY": 76.0
  },
  {
    "STUDYID": "CDISCPILOT01",
    "DOMAIN": "EX",
    "USUBJID": "CDISC005",
    "SPDEVID": "DEV0005",
    "EXSEQ": 77.0,
    "EXTRT": "ZANOMALINE",
    "EXDOSE": 81.0,
    "EXDOSU": "mg",
    "EXDOSFRM": "INJECTION",
    "EXDOSFRQ": "QD",
    "EXROUTE": "SUBCUTANEOUS",
    "EXLOT": "SDS580-983",
    "EPOCH": "TREATMENT",
    "EXSTDTC": "2013-04-21",
    "EXENDTC": "2013-04-21",
    "EXSTDY": 77.0,
    "EXENDY": 77.0
  },
  {
    "STUDYID": "CDISCPILOT01",
    "DOMAIN": "EX",
    "USUBJID": "CDISC005",
    "SPDEVID": "DEV0005",
    "EXSEQ": 78.0,
    "EXTRT": "ZANOMALINE",
    "EXDOSE": 81.0,
    "EXDOSU": "mg",
    "EXDOSFRM": "INJECTION",
    "EXDOSFRQ": "QD",
    "EXROUTE": "SUBCUTANEOUS",
    "EXLOT": "SDS580-983",
    "EPOCH": "TREATMENT",
    "EXSTDTC": "2013-04-22",
    "EXENDTC": "2013-04-22",
    "EXSTDY": 78.0,
    "EXENDY": 78.0
  },
  {
    "STUDYID": "CDISCPILOT01",
    "DOMAIN": "EX",
    "USUBJID": "CDISC005",
    "SPDEVID": "DEV0005",
    "EXSEQ": 79.0,
    "EXTRT": "ZANOMALINE",
    "EXDOSE": 81.0,
    "EXDOSU": "mg",
    "EXDOSFRM": "INJECTION",
    "EXDOSFRQ": "QD",
    "EXROUTE": "SUBCUTANEOUS",
    "EXLOT": "SDS580-983",
    "EPOCH": "TREATMENT",
    "EXSTDTC": "2013-04-23",
    "EXENDTC": "2013-04-23",
    "EXSTDY": 79.0,
    "EXENDY": 79.0
  },
  {
    "STUDYID": "CDISCPILOT01",
    "DOMAIN": "EX",
    "USUBJID": "CDISC005",
    "SPDEVID": "DEV0005",
    "EXSEQ": 80.0,
    "EXTRT": "ZANOMALINE",
    "EXDOSE": 81.0,
    "EXDOSU": "mg",
    "EXDOSFRM": "INJECTION",
    "EXDOSFRQ": "QD",
    "EXROUTE": "SUBCUTANEOUS",
    "EXLOT": "SDS580-983",
    "EPOCH": "TREATMENT",
    "EXSTDTC": "2013-04-24",
    "EXENDTC": "2013-04-24",
    "EXSTDY": 80.0,
    "EXENDY": 80.0
  },
  {
    "STUDYID": "CDISCPILOT01",
    "DOMAIN": "EX",
    "USUBJID": "CDISC005",
    "SPDEVID": "DEV0005",
    "EXSEQ": 81.0,
    "EXTRT": "ZANOMALINE",
    "EXDOSE": 81.0,
    "EXDOSU": "mg",
    "EXDOSFRM": "INJECTION",
    "EXDOSFRQ": "QD",
    "EXROUTE": "SUBCUTANEOUS",
    "EXLOT": "SDS580-983",
    "EPOCH": "TREATMENT",
    "EXSTDTC": "2013-04-25",
    "EXENDTC": "2013-04-25",
    "EXSTDY": 81.0,
    "EXENDY": 81.0
  },
  {
    "STUDYID": "CDISCPILOT01",
    "DOMAIN": "EX",
    "USUBJID": "CDISC005",
    "SPDEVID": "DEV0005",
    "EXSEQ": 82.0,
    "EXTRT": "ZANOMALINE",
    "EXDOSE": 81.0,
    "EXDOSU": "mg",
    "EXDOSFRM": "INJECTION",
    "EXDOSFRQ": "QD",
    "EXROUTE": "SUBCUTANEOUS",
    "EXLOT": "SDS580-983",
    "EPOCH": "TREATMENT",
    "EXSTDTC": "2013-04-26",
    "EXENDTC": "2013-04-26",
    "EXSTDY": 82.0,
    "EXENDY": 82.0
  },
  {
    "STUDYID": "CDISCPILOT01",
    "DOMAIN": "EX",
    "USUBJID": "CDISC005",
    "SPDEVID": "DEV0005",
    "EXSEQ": 83.0,
    "EXTRT": "ZANOMALINE",
    "EXDOSE": 81.0,
    "EXDOSU": "mg",
    "EXDOSFRM": "INJECTION",
    "EXDOSFRQ": "QD",
    "EXROUTE": "SUBCUTANEOUS",
    "EXLOT": "SDS580-983",
    "EPOCH": "TREATMENT",
    "EXSTDTC": "2013-04-27",
    "EXENDTC": "2013-04-27",
    "EXSTDY": 83.0,
    "EXENDY": 83.0
  },
  {
    "STUDYID": "CDISCPILOT01",
    "DOMAIN": "EX",
    "USUBJID": "CDISC005",
    "SPDEVID": "DEV0005",
    "EXSEQ": 84.0,
    "EXTRT": "ZANOMALINE",
    "EXDOSE": 81.0,
    "EXDOSU": "mg",
    "EXDOSFRM": "INJECTION",
    "EXDOSFRQ": "QD",
    "EXROUTE": "SUBCUTANEOUS",
    "EXLOT": "SDS580-983",
    "EPOCH": "TREATMENT",
    "EXSTDTC": "2013-04-28",
    "EXENDTC": "2013-04-28",
    "EXSTDY": 84.0,
    "EXENDY": 84.0
  },
  {
    "STUDYID": "CDISCPILOT01",
    "DOMAIN": "EX",
    "USUBJID": "CDISC005",
    "SPDEVID": "DEV0005",
    "EXSEQ": 85.0,
    "EXTRT": "ZANOMALINE",
    "EXDOSE": 81.0,
    "EXDOSU": "mg",
    "EXDOSFRM": "INJECTION",
    "EXDOSFRQ": "QD",
    "EXROUTE": "SUBCUTANEOUS",
    "EXLOT": "SDS580-983",
    "EPOCH": "TREATMENT",
    "EXSTDTC": "2013-04-29",
    "EXENDTC": "2013-04-29",
    "EXSTDY": 85.0,
    "EXENDY": 85.0
  },
  {
    "STUDYID": "CDISCPILOT01",
    "DOMAIN": "EX",
    "USUBJID": "CDISC005",
    "SPDEVID": "DEV0005",
    "EXSEQ": 86.0,
    "EXTRT": "ZANOMALINE",
    "EXDOSE": 81.0,
    "EXDOSU": "mg",
    "EXDOSFRM": "INJECTION",
    "EXDOSFRQ": "QD",
    "EXROUTE": "SUBCUTANEOUS",
    "EXLOT": "SDS580-983",
    "EPOCH": "TREATMENT",
    "EXSTDTC": "2013-04-30",
    "EXENDTC": "2013-04-30",
    "EXSTDY": 86.0,
    "EXENDY": 86.0
  },
  {
    "STUDYID": "CDISCPILOT01",
    "DOMAIN": "EX",
    "USUBJID": "CDISC005",
    "SPDEVID": "DEV0005",
    "EXSEQ": 87.0,
    "EXTRT": "ZANOMALINE",
    "EXDOSE": 81.0,
    "EXDOSU": "mg",
    "EXDOSFRM": "INJECTION",
    "EXDOSFRQ": "QD",
    "EXROUTE": "SUBCUTANEOUS",
    "EXLOT": "SDS580-983",
    "EPOCH": "TREATMENT",
    "EXSTDTC": "2013-05-01",
    "EXENDTC": "2013-05-01",
    "EXSTDY": 87.0,
    "EXENDY": 87.0
  },
  {
    "STUDYID": "CDISCPILOT01",
    "DOMAIN": "EX",
    "USUBJID": "CDISC005",
    "SPDEVID": "DEV0005",
    "EXSEQ": 88.0,
    "EXTRT": "ZANOMALINE",
    "EXDOSE": 81.0,
    "EXDOSU": "mg",
    "EXDOSFRM": "INJECTION",
    "EXDOSFRQ": "QD",
    "EXROUTE": "SUBCUTANEOUS",
    "EXLOT": "SDS580-983",
    "EPOCH": "TREATMENT",
    "EXSTDTC": "2013-05-02",
    "EXENDTC": "2013-05-02",
    "EXSTDY": 88.0,
    "EXENDY": 88.0
  },
  {
    "STUDYID": "CDISCPILOT01",
    "DOMAIN": "EX",
    "USUBJID": "CDISC005",
    "SPDEVID": "DEV0005",
    "EXSEQ": 89.0,
    "EXTRT": "ZANOMALINE",
    "EXDOSE": 81.0,
    "EXDOSU": "mg",
    "EXDOSFRM": "INJECTION",
    "EXDOSFRQ": "QD",
    "EXROUTE": "SUBCUTANEOUS",
    "EXLOT": "SDS580-983",
    "EPOCH": "TREATMENT",
    "EXSTDTC": "2013-05-03",
    "EXENDTC": "2013-05-03",
    "EXSTDY": 89.0,
    "EXENDY": 89.0
  },
  {
    "STUDYID": "CDISCPILOT01",
    "DOMAIN": "EX",
    "USUBJID": "CDISC005",
    "SPDEVID": "DEV0005",
    "EXSEQ": 90.0,
    "EXTRT": "ZANOMALINE",
    "EXDOSE": 81.0,
    "EXDOSU": "mg",
    "EXDOSFRM": "INJECTION",
    "EXDOSFRQ": "QD",
    "EXROUTE": "SUBCUTANEOUS",
    "EXLOT": "SDS580-983",
    "EPOCH": "TREATMENT",
    "EXSTDTC": "2013-05-04",
    "EXENDTC": "2013-05-04",
    "EXSTDY": 90.0,
    "EXENDY": 90.0
  },
  {
    "STUDYID": "CDISCPILOT01",
    "DOMAIN": "EX",
    "USUBJID": "CDISC005",
    "SPDEVID": "DEV0005",
    "EXSEQ": 91.0,
    "EXTRT": "ZANOMALINE",
    "EXDOSE": 81.0,
    "EXDOSU": "mg",
    "EXDOSFRM": "INJECTION",
    "EXDOSFRQ": "QD",
    "EXROUTE": "SUBCUTANEOUS",
    "EXLOT": "SDS580-983",
    "EPOCH": "TREATMENT",
    "EXSTDTC": "2013-05-05",
    "EXENDTC": "2013-05-05",
    "EXSTDY": 91.0,
    "EXENDY": 91.0
  },
  {
    "STUDYID": "CDISCPILOT01",
    "DOMAIN": "EX",
    "USUBJID": "CDISC005",
    "SPDEVID": "DEV0005",
    "EXSEQ": 92.0,
    "EXTRT": "ZANOMALINE",
    "EXDOSE": 81.0,
    "EXDOSU": "mg",
    "EXDOSFRM": "INJECTION",
    "EXDOSFRQ": "QD",
    "EXROUTE": "SUBCUTANEOUS",
    "EXLOT": "SDS580-983",
    "EPOCH": "TREATMENT",
    "EXSTDTC": "2013-05-06",
    "EXENDTC": "2013-05-06",
    "EXSTDY": 92.0,
    "EXENDY": 92.0
  },
  {
    "STUDYID": "CDISCPILOT01",
    "DOMAIN": "EX",
    "USUBJID": "CDISC005",
    "SPDEVID": "DEV0005",
    "EXSEQ": 93.0,
    "EXTRT": "ZANOMALINE",
    "EXDOSE": 81.0,
    "EXDOSU": "mg",
    "EXDOSFRM": "INJECTION",
    "EXDOSFRQ": "QD",
    "EXROUTE": "SUBCUTANEOUS",
    "EXLOT": "SDS580-983",
    "EPOCH": "TREATMENT",
    "EXSTDTC": "2013-05-07",
    "EXENDTC": "2013-05-07",
    "EXSTDY": 93.0,
    "EXENDY": 93.0
  },
  {
    "STUDYID": "CDISCPILOT01",
    "DOMAIN": "EX",
    "USUBJID": "CDISC005",
    "SPDEVID": "DEV0005",
    "EXSEQ": 94.0,
    "EXTRT": "ZANOMALINE",
    "EXDOSE": 81.0,
    "EXDOSU": "mg",
    "EXDOSFRM": "INJECTION",
    "EXDOSFRQ": "QD",
    "EXROUTE": "SUBCUTANEOUS",
    "EXLOT": "SDS580-983",
    "EPOCH": "TREATMENT",
    "EXSTDTC": "2013-05-08",
    "EXENDTC": "2013-05-08",
    "EXSTDY": 94.0,
    "EXENDY": 94.0
  },
  {
    "STUDYID": "CDISCPILOT01",
    "DOMAIN": "EX",
    "USUBJID": "CDISC005",
    "SPDEVID": "DEV0005",
    "EXSEQ": 95.0,
    "EXTRT": "ZANOMALINE",
    "EXDOSE": 81.0,
    "EXDOSU": "mg",
    "EXDOSFRM": "INJECTION",
    "EXDOSFRQ": "QD",
    "EXROUTE": "SUBCUTANEOUS",
    "EXLOT": "SDS580-983",
    "EPOCH": "TREATMENT",
    "EXSTDTC": "2013-05-09",
    "EXENDTC": "2013-05-09",
    "EXSTDY": 95.0,
    "EXENDY": 95.0
  },
  {
    "STUDYID": "CDISCPILOT01",
    "DOMAIN": "EX",
    "USUBJID": "CDISC005",
    "SPDEVID": "DEV0005",
    "EXSEQ": 96.0,
    "EXTRT": "ZANOMALINE",
    "EXDOSE": 81.0,
    "EXDOSU": "mg",
    "EXDOSFRM": "INJECTION",
    "EXDOSFRQ": "QD",
    "EXROUTE": "SUBCUTANEOUS",
    "EXLOT": "SDS580-983",
    "EPOCH": "TREATMENT",
    "EXSTDTC": "2013-05-10",
    "EXENDTC": "2013-05-10",
    "EXSTDY": 96.0,
    "EXENDY": 96.0
  },
  {
    "STUDYID": "CDISCPILOT01",
    "DOMAIN": "EX",
    "USUBJID": "CDISC005",
    "SPDEVID": "DEV0005",
    "EXSEQ": 97.0,
    "EXTRT": "ZANOMALINE",
    "EXDOSE": 81.0,
    "EXDOSU": "mg",
    "EXDOSFRM": "INJECTION",
    "EXDOSFRQ": "QD",
    "EXROUTE": "SUBCUTANEOUS",
    "EXLOT": "SDS580-983",
    "EPOCH": "TREATMENT",
    "EXSTDTC": "2013-05-11",
    "EXENDTC": "2013-05-11",
    "EXSTDY": 97.0,
    "EXENDY": 97.0
  },
  {
    "STUDYID": "CDISCPILOT01",
    "DOMAIN": "EX",
    "USUBJID": "CDISC005",
    "SPDEVID": "DEV0005",
    "EXSEQ": 98.0,
    "EXTRT": "ZANOMALINE",
    "EXDOSE": 81.0,
    "EXDOSU": "mg",
    "EXDOSFRM": "INJECTION",
    "EXDOSFRQ": "QD",
    "EXROUTE": "SUBCUTANEOUS",
    "EXLOT": "SDS580-983",
    "EPOCH": "TREATMENT",
    "EXSTDTC": "2013-05-12",
    "EXENDTC": "2013-05-12",
    "EXSTDY": 98.0,
    "EXENDY": 98.0
  },
  {
    "STUDYID": "CDISCPILOT01",
    "DOMAIN": "EX",
    "USUBJID": "CDISC005",
    "SPDEVID": "DEV0005",
    "EXSEQ": 99.0,
    "EXTRT": "ZANOMALINE",
    "EXDOSE": 81.0,
    "EXDOSU": "mg",
    "EXDOSFRM": "INJECTION",
    "EXDOSFRQ": "QD",
    "EXROUTE": "SUBCUTANEOUS",
    "EXLOT": "SDS580-983",
    "EPOCH": "TREATMENT",
    "EXSTDTC": "2013-05-13",
    "EXENDTC": "2013-05-13",
    "EXSTDY": 99.0,
    "EXENDY": 99.0
  },
  {
    "STUDYID": "CDISCPILOT01",
    "DOMAIN": "EX",
    "USUBJID": "CDISC005",
    "SPDEVID": "DEV0005",
    "EXSEQ": 100.0,
    "EXTRT": "ZANOMALINE",
    "EXDOSE": 81.0,
    "EXDOSU": "mg",
    "EXDOSFRM": "INJECTION",
    "EXDOSFRQ": "QD",
    "EXROUTE": "SUBCUTANEOUS",
    "EXLOT": "SDS580-983",
    "EPOCH": "TREATMENT",
    "EXSTDTC": "2013-05-14",
    "EXENDTC": "2013-05-14",
    "EXSTDY": 100.0,
    "EXENDY": 100.0
  },
  {
    "STUDYID": "CDISCPILOT01",
    "DOMAIN": "EX",
    "USUBJID": "CDISC005",
    "SPDEVID": "DEV0005",
    "EXSEQ": 101.0,
    "EXTRT": "ZANOMALINE",
    "EXDOSE": 81.0,
    "EXDOSU": "mg",
    "EXDOSFRM": "INJECTION",
    "EXDOSFRQ": "QD",
    "EXROUTE": "SUBCUTANEOUS",
    "EXLOT": "SDS580-983",
    "EPOCH": "TREATMENT",
    "EXSTDTC": "2013-05-15",
    "EXENDTC": "2013-05-15",
    "EXSTDY": 101.0,
    "EXENDY": 101.0
  },
  {
    "STUDYID": "CDISCPILOT01",
    "DOMAIN": "EX",
    "USUBJID": "CDISC005",
    "SPDEVID": "DEV0005",
    "EXSEQ": 102.0,
    "EXTRT": "ZANOMALINE",
    "EXDOSE": 81.0,
    "EXDOSU": "mg",
    "EXDOSFRM": "INJECTION",
    "EXDOSFRQ": "QD",
    "EXROUTE": "SUBCUTANEOUS",
    "EXLOT": "SDS580-983",
    "EPOCH": "TREATMENT",
    "EXSTDTC": "2013-05-16",
    "EXENDTC": "2013-05-16",
    "EXSTDY": 102.0,
    "EXENDY": 102.0
  },
  {
    "STUDYID": "CDISCPILOT01",
    "DOMAIN": "EX",
    "USUBJID": "CDISC005",
    "SPDEVID": "DEV0005",
    "EXSEQ": 103.0,
    "EXTRT": "ZANOMALINE",
    "EXDOSE": 81.0,
    "EXDOSU": "mg",
    "EXDOSFRM": "INJECTION",
    "EXDOSFRQ": "QD",
    "EXROUTE": "SUBCUTANEOUS",
    "EXLOT": "SDS580-983",
    "EPOCH": "TREATMENT",
    "EXSTDTC": "2013-05-17",
    "EXENDTC": "2013-05-17",
    "EXSTDY": 103.0,
    "EXENDY": 103.0
  },
  {
    "STUDYID": "CDISCPILOT01",
    "DOMAIN": "EX",
    "USUBJID": "CDISC005",
    "SPDEVID": "DEV0005",
    "EXSEQ": 104.0,
    "EXTRT": "ZANOMALINE",
    "EXDOSE": 81.0,
    "EXDOSU": "mg",
    "EXDOSFRM": "INJECTION",
    "EXDOSFRQ": "QD",
    "EXROUTE": "SUBCUTANEOUS",
    "EXLOT": "SDS580-983",
    "EPOCH": "TREATMENT",
    "EXSTDTC": "2013-05-18",
    "EXENDTC": "2013-05-18",
    "EXSTDY": 104.0,
    "EXENDY": 104.0
  },
  {
    "STUDYID": "CDISCPILOT01",
    "DOMAIN": "EX",
    "USUBJID": "CDISC005",
    "SPDEVID": "DEV0005",
    "EXSEQ": 105.0,
    "EXTRT": "ZANOMALINE",
    "EXDOSE": 81.0,
    "EXDOSU": "mg",
    "EXDOSFRM": "INJECTION",
    "EXDOSFRQ": "QD",
    "EXROUTE": "SUBCUTANEOUS",
    "EXLOT": "SDS580-983",
    "EPOCH": "TREATMENT",
    "EXSTDTC": "2013-05-19",
    "EXENDTC": "2013-05-19",
    "EXSTDY": 105.0,
    "EXENDY": 105.0
  },
  {
    "STUDYID": "CDISCPILOT01",
    "DOMAIN": "EX",
    "USUBJID": "CDISC005",
    "SPDEVID": "DEV0005",
    "EXSEQ": 106.0,
    "EXTRT": "ZANOMALINE",
    "EXDOSE": 81.0,
    "EXDOSU": "mg",
    "EXDOSFRM": "INJECTION",
    "EXDOSFRQ": "QD",
    "EXROUTE": "SUBCUTANEOUS",
    "EXLOT": "SDS580-983",
    "EPOCH": "TREATMENT",
    "EXSTDTC": "2013-05-20",
    "EXENDTC": "2013-05-20",
    "EXSTDY": 106.0,
    "EXENDY": 106.0
  },
  {
    "STUDYID": "CDISCPILOT01",
    "DOMAIN": "EX",
    "USUBJID": "CDISC005",
    "SPDEVID": "DEV0005",
    "EXSEQ": 107.0,
    "EXTRT": "ZANOMALINE",
    "EXDOSE": 81.0,
    "EXDOSU": "mg",
    "EXDOSFRM": "INJECTION",
    "EXDOSFRQ": "QD",
    "EXROUTE": "SUBCUTANEOUS",
    "EXLOT": "SDS580-983",
    "EPOCH": "TREATMENT",
    "EXSTDTC": "2013-05-21",
    "EXENDTC": "2013-05-21",
    "EXSTDY": 107.0,
    "EXENDY": 107.0
  },
  {
    "STUDYID": "CDISCPILOT01",
    "DOMAIN": "EX",
    "USUBJID": "CDISC005",
    "SPDEVID": "DEV0005",
    "EXSEQ": 108.0,
    "EXTRT": "ZANOMALINE",
    "EXDOSE": 81.0,
    "EXDOSU": "mg",
    "EXDOSFRM": "INJECTION",
    "EXDOSFRQ": "QD",
    "EXROUTE": "SUBCUTANEOUS",
    "EXLOT": "SDS580-983",
    "EPOCH": "TREATMENT",
    "EXSTDTC": "2013-05-22",
    "EXENDTC": "2013-05-22",
    "EXSTDY": 108.0,
    "EXENDY": 108.0
  },
  {
    "STUDYID": "CDISCPILOT01",
    "DOMAIN": "EX",
    "USUBJID": "CDISC005",
    "SPDEVID": "DEV0005",
    "EXSEQ": 109.0,
    "EXTRT": "ZANOMALINE",
    "EXDOSE": 81.0,
    "EXDOSU": "mg",
    "EXDOSFRM": "INJECTION",
    "EXDOSFRQ": "QD",
    "EXROUTE": "SUBCUTANEOUS",
    "EXLOT": "SDS580-983",
    "EPOCH": "TREATMENT",
    "EXSTDTC": "2013-05-23",
    "EXENDTC": "2013-05-23",
    "EXSTDY": 109.0,
    "EXENDY": 109.0
  },
  {
    "STUDYID": "CDISCPILOT01",
    "DOMAIN": "EX",
    "USUBJID": "CDISC005",
    "SPDEVID": "DEV0005",
    "EXSEQ": 110.0,
    "EXTRT": "ZANOMALINE",
    "EXDOSE": 81.0,
    "EXDOSU": "mg",
    "EXDOSFRM": "INJECTION",
    "EXDOSFRQ": "QD",
    "EXROUTE": "SUBCUTANEOUS",
    "EXLOT": "SDS580-983",
    "EPOCH": "TREATMENT",
    "EXSTDTC": "2013-05-24",
    "EXENDTC": "2013-05-24",
    "EXSTDY": 110.0,
    "EXENDY": 110.0
  },
  {
    "STUDYID": "CDISCPILOT01",
    "DOMAIN": "EX",
    "USUBJID": "CDISC005",
    "SPDEVID": "DEV0005",
    "EXSEQ": 111.0,
    "EXTRT": "ZANOMALINE",
    "EXDOSE": 81.0,
    "EXDOSU": "mg",
    "EXDOSFRM": "INJECTION",
    "EXDOSFRQ": "QD",
    "EXROUTE": "SUBCUTANEOUS",
    "EXLOT": "SDS580-983",
    "EPOCH": "TREATMENT",
    "EXSTDTC": "2013-05-25",
    "EXENDTC": "2013-05-25",
    "EXSTDY": 111.0,
    "EXENDY": 111.0
  },
  {
    "STUDYID": "CDISCPILOT01",
    "DOMAIN": "EX",
    "USUBJID": "CDISC005",
    "SPDEVID": "DEV0005",
    "EXSEQ": 112.0,
    "EXTRT": "ZANOMALINE",
    "EXDOSE": 81.0,
    "EXDOSU": "mg",
    "EXDOSFRM": "INJECTION",
    "EXDOSFRQ": "QD",
    "EXROUTE": "SUBCUTANEOUS",
    "EXLOT": "SDS580-983",
    "EPOCH": "TREATMENT",
    "EXSTDTC": "2013-05-26",
    "EXENDTC": "2013-05-26",
    "EXSTDY": 112.0,
    "EXENDY": 112.0
  },
  {
    "STUDYID": "CDISCPILOT01",
    "DOMAIN": "EX",
    "USUBJID": "CDISC005",
    "SPDEVID": "DEV0005",
    "EXSEQ": 113.0,
    "EXTRT": "ZANOMALINE",
    "EXDOSE": 81.0,
    "EXDOSU": "mg",
    "EXDOSFRM": "INJECTION",
    "EXDOSFRQ": "QD",
    "EXROUTE": "SUBCUTANEOUS",
    "EXLOT": "SDS580-983",
    "EPOCH": "TREATMENT",
    "EXSTDTC": "2013-05-27",
    "EXENDTC": "2013-05-27",
    "EXSTDY": 113.0,
    "EXENDY": 113.0
  },
  {
    "STUDYID": "CDISCPILOT01",
    "DOMAIN": "EX",
    "USUBJID": "CDISC005",
    "SPDEVID": "DEV0005",
    "EXSEQ": 114.0,
    "EXTRT": "ZANOMALINE",
    "EXDOSE": 81.0,
    "EXDOSU": "mg",
    "EXDOSFRM": "INJECTION",
