[
  {
    "STUDYID": "CDISCPILOT01",
    "RDOMAIN": "EC",
    "USUBJID": "CDISC009",
    "IDVAR": "ECSEQ",
    "IDVARVAL": "122",
    "QNAM": "ECREASOC",
    "QLABEL": "Reason for Occur Value",
    "QVAL": "INVESTIGATOR DECISION",
    "QORIG": "COLLECTED",
    "QEVAL": "INVESTIGATOR"
  },
  {
    "STUDYID": "CDISCPILOT01",
    "RDOMAIN": "EC",
    "USUBJID": "CDISC009",
    "IDVAR": "ECSEQ",
    "IDVARVAL": "123",
    "QNAM": "ECREASOC",
    "QLABEL": "Reason for Occur Value",
    "QVAL": "INVESTIGATOR DECISION",
    "QORIG": "COLLECTED",
    "QEVAL": "INVESTIGATOR"
  },
  {
    "STUDYID": "CDISCPILOT01",
    "RDOMAIN": "EC",
    "USUBJID": "CDISC009",
    "IDVAR": "ECSEQ",
    "IDVARVAL": "124",
    "QNAM": "ECREASOC",
    "QLABEL": "Reason for Occur Value",
    "QVAL": "INVESTIGATOR DECISION",
    "QORIG": "COLLECTED",
    "QEVAL": "INVESTIGATOR"
  },
  {
    "STUDYID": "CDISCPILOT01",
    "RDOMAIN": "EC",
    "USUBJID": "CDISC009",
    "IDVAR": "ECSEQ",
    "IDVARVAL": "125",
    "QNAM": "ECREASOC",
    "QLABEL": "Reason for Occur Value",
    "QVAL": "INVESTIGATOR DECISION",
    "QORIG": "COLLECTED",
    "QEVAL": "INVESTIGATOR"
  },
  {
    "STUDYID": "CDISCPILOT01",
    "RDOMAIN": "EC",
    "USUBJID": "CDISC009",
    "IDVAR": "ECSEQ",
    "IDVARVAL": "126",
    "QNAM": "ECREASOC",
    "QLABEL": "Reason for Occur Value",
    "QVAL": "INVESTIGATOR DECISION",
    "QORIG": "COLLECTED",
    "QEVAL": "INVESTIGATOR"
  },
  {
    "STUDYID": "CDISCPILOT01",
    "RDOMAIN": "EC",
    "USUBJID": "CDISC009",
    "IDVAR": "ECSEQ",
    "IDVARVAL": "127",
    "QNAM": "ECREASOC",
    "QLABEL": "Reason for Occur Value",
    "QVAL": "INVESTIGATOR DECISION",
    "QORIG": "COLLECTED",
    "QEVAL": "INVESTIGATOR"
  },
  {
    "STUDYID": "CDISCPILOT01",
    "RDOMAIN": "EC",
    "USUBJID": "CDISC009",
    "IDVAR": "ECSEQ",
    "IDVARVAL": "128",
    "QNAM": "ECREASOC",
    "QLABEL": "Reason for Occur Value",
    "QVAL": "INVESTIGATOR DECISION",
    "QORIG": "COLLECTED",
    "QEVAL": "INVESTIGATOR"
  }
]