[
  {
    "STUDYID": "CDISCPILOT01",
    "DOMAIN": "AE",
    "USUBJID": "CDISC001",
    "AESEQ": 1.0,
    "AELNKID": "1",
    "AETERM": "INJECTION SITE REACTION",
    "AELLT": "",
    "AELLTCD": "",
    "AEDECOD": "",
    "AEPTCD": "",
    "AEHLT": "",
    "AEHLTCD": "",
    "AEHLGT": "",
    "AEHLGTCD": "",
    "AEBODSYS": "",
    "AEBDSYCD": "",
    "AESOC": "",
    "AESOCCD": "",
    "AESEV": "MODERATE",
    "AESER": "N",
    "AEACN": "DRUG WITHDRAWN",
    "AEREL": "RELATED",
    "AEOUT": "NOT RECOVERED/NOT RESOLVED",
    "AESCAN": "N",
    "AESCONG": "N",
    "AESDISAB": "N",
    "AESDTH": "N",
    "AESHOSP": "N",
    "AESLIFE": "N",
    "AESOD": "N",
    "EPOCH": "TREATMENT",
    "AESTDTC": "2012-12-02",
    "AEENDTC": "",
    "AESTDY": 3.0,
    "AEENDY": "",
    "AEENRTPT": "ONGOING",
    "AEENTPT": "2013-05-20"
  },
  {
    "STUDYID": "CDISCPILOT01",
    "DOMAIN": "AE",
    "USUBJID": "CDISC001",
    "AESEQ": 2.0,
    "AELNKID": "2",
    "AETERM": "FATIGUE",
    "AELLT": "",
    "AELLTCD": "",
    "AEDECOD": "",
    "AEPTCD": "",
    "AEHLT": "",
    "AEHLTCD": "",
    "AEHLGT": "",
    "AEHLGTCD": "",
    "AEBODSYS": "",
    "AEBDSYCD": "",
    "AESOC": "",
    "AESOCCD": "",
    "AESEV": "MODERATE",
    "AESER": "N",
    "AEACN": "DOSE NOT CHANGED",
    "AEREL": "UNLIKELY RELATED",
    "AEOUT": "NOT RECOVERED/NOT RESOLVED",
    "AESCAN": "N",
    "AESCONG": "N",
    "AESDISAB": "N",
    "AESDTH": "N",
    "AESHOSP": "N",
    "AESLIFE": "N",
    "AESOD": "N",
    "EPOCH": "TREATMENT",
    "AESTDTC": "2013-01-14",
    "AEENDTC": "",
    "AESTDY": 46.0,
    "AEENDY": "",
    "AEENRTPT": "ONGOING",
    "AEENTPT": "2013-05-20"
  },
  {
    "STUDYID": "CDISCPILOT01",
    "DOMAIN": "AE",
    "USUBJID": "CDISC002",
    "AESEQ": 1.0,
    "AELNKID": "1",
    "AETERM": "INJECTION SITE REACTION",
    "AELLT": "",
    "AELLTCD": "",
    "AEDECOD": "",
    "AEPTCD": "",
    "AEHLT": "",
    "AEHLTCD": "",
    "AEHLGT": "",
    "AEHLGTCD": "",
    "AEBODSYS": "",
    "AEBDSYCD": "",
    "AESOC": "",
    "AESOCCD": "",
    "AESEV": "MILD",
    "AESER": "N",
    "AEACN": "DOSE NOT CHANGED",
    "AEREL": "POSSIBLY RELATED",
    "AEOUT": "NOT RECOVERED/NOT RESOLVED",
    "AESCAN": "N",
    "AESCONG": "N",
    "AESDISAB": "N",
    "AESDTH": "N",
    "AESHOSP": "N",
    "AESLIFE": "N",
    "AESOD": "N",
    "EPOCH": "TREATMENT",
    "AESTDTC": "2012-11-16",
    "AEENDTC": "",
    "AESTDY": 2.0,
    "AEENDY": "",
    "AEENRTPT": "ONGOING",
    "AEENTPT": "2013-01-14"
  },
  {
    "STUDYID": "CDISCPILOT01",
    "DOMAIN": "AE",
    "USUBJID": "CDISC002",
    "AESEQ": 2.0,
    "AELNKID": "2",
    "AETERM": "SHOULDER PAIN",
    "AELLT": "",
    "AELLTCD": "",
    "AEDECOD": "",
    "AEPTCD": "",
    "AEHLT": "",
    "AEHLTCD": "",
    "AEHLGT": "",
    "AEHLGTCD": "",
    "AEBODSYS": "",
    "AEBDSYCD": "",
    "AESOC": "",
    "AESOCCD": "",
    "AESEV": "MILD",
    "AESER": "N",
    "AEACN": "DOSE NOT CHANGED",
    "AEREL": "NOT RELATED",
    "AEOUT": "NOT RECOVERED/NOT RESOLVED",
    "AESCAN": "N",
    "AESCONG": "N",
    "AESDISAB": "N",
    "AESDTH": "N",
    "AESHOSP": "N",
    "AESLIFE": "N",
    "AESOD": "N",
    "EPOCH": "TREATMENT",
    "AESTDTC": "2012-11-21",
    "AEENDTC": "",
    "AESTDY": 7.0,
    "AEENDY": "",
    "AEENRTPT": "ONGOING",
    "AEENTPT": "2013-01-14"
  },
  {
    "STUDYID": "CDISCPILOT01",
    "DOMAIN": "AE",
    "USUBJID": "CDISC002",
    "AESEQ": 3.0,
    "AELNKID": "3",
    "AETERM": "JOINT DISLOCATION",
    "AELLT": "",
    "AELLTCD": "",
    "AEDECOD": "",
    "AEPTCD": "",
    "AEHLT": "",
    "AEHLTCD": "",
    "AEHLGT": "",
    "AEHLGTCD": "",
    "AEBODSYS": "",
    "AEBDSYCD": "",
    "AESOC": "",
    "AESOCCD": "",
    "AESEV": "MODERATE",
    "AESER": "N",
    "AEACN": "DOSE NOT CHANGED",
    "AEREL": "NOT RELATED",
    "AEOUT": "RECOVERED/RESOLVED",
    "AESCAN": "N",
    "AESCONG": "N",
    "AESDISAB": "N",
    "AESDTH": "N",
    "AESHOSP": "N",
    "AESLIFE": "N",
    "AESOD": "N",
    "EPOCH": "TREATMENT",
    "AESTDTC": "2012-11-21",
    "AEENDTC": "2012-11-21",
    "AESTDY": 7.0,
    "AEENDY": 7.0,
    "AEENRTPT": "",
    "AEENTPT": ""
  },
  {
    "STUDYID": "CDISCPILOT01",
    "DOMAIN": "AE",
    "USUBJID": "CDISC002",
    "AESEQ": 4.0,
    "AELNKID": "4",
    "AETERM": "INCONTINENCE",
    "AELLT": "",
    "AELLTCD": "",
    "AEDECOD": "",
    "AEPTCD": "",
    "AEHLT": "",
    "AEHLTCD": "",
    "AEHLGT": "",
    "AEHLGTCD": "",
    "AEBODSYS": "",
    "AEBDSYCD": "",
    "AESOC": "",
    "AESOCCD": "",
    "AESEV": "MILD",
    "AESER": "N",
    "AEACN": "DOSE NOT CHANGED",
    "AEREL": "NOT RELATED",
    "AEOUT": "NOT RECOVERED/NOT RESOLVED",
    "AESCAN": "N",
    "AESCONG": "N",
    "AESDISAB": "N",
    "AESDTH": "N",
    "AESHOSP": "N",
    "AESLIFE": "N",
    "AESOD": "N",
    "EPOCH": "TREATMENT",
    "AESTDTC": "2012-11-22",
    "AEENDTC": "",
    "AESTDY": 8.0,
    "AEENDY": "",
    "AEENRTPT": "ONGOING",
    "AEENTPT": "2013-01-14"
  },
  {
    "STUDYID": "CDISCPILOT01",
    "DOMAIN": "AE",
    "USUBJID": "CDISC002",
    "AESEQ": 5.0,
    "AELNKID": "5",
    "AETERM": "INJECTION SITE REACTION",
    "AELLT": "",
    "AELLTCD": "",
    "AEDECOD": "",
    "AEPTCD": "",
    "AEHLT": "",
    "AEHLTCD": "",
    "AEHLGT": "",
    "AEHLGTCD": "",
    "AEBODSYS": "",
    "AEBDSYCD": "",
    "AESOC": "",
    "AESOCCD": "",
    "AESEV": "MILD",
    "AESER": "N",
    "AEACN": "DOSE NOT CHANGED",
    "AEREL": "POSSIBLY RELATED",
    "AEOUT": "NOT RECOVERED/NOT RESOLVED",
    "AESCAN": "N",
    "AESCONG": "N",
    "AESDISAB": "N",
    "AESDTH": "N",
    "AESHOSP": "N",
    "AESLIFE": "N",
    "AESOD": "N",
    "EPOCH": "TREATMENT",
    "AESTDTC": "2012-11-29",
    "AEENDTC": "",
    "AESTDY": 15.0,
    "AEENDY": "",
    "AEENRTPT": "ONGOING",
    "AEENTPT": "2013-01-14"
  },
  {
    "STUDYID": "CDISCPILOT01",
    "DOMAIN": "AE",
    "USUBJID": "CDISC002",
    "AESEQ": 6.0,
    "AELNKID": "6",
    "AETERM": "SKIN LACERATION",
    "AELLT": "",
    "AELLTCD": "",
    "AEDECOD": "",
    "AEPTCD": "",
    "AEHLT": "",
    "AEHLTCD": "",
    "AEHLGT": "",
    "AEHLGTCD": "",
    "AEBODSYS": "",
    "AEBDSYCD": "",
    "AESOC": "",
    "AESOCCD": "",
    "AESEV": "MILD",
    "AESER": "N",
    "AEACN": "DOSE NOT CHANGED",
    "AEREL": "NOT RELATED",
    "AEOUT": "NOT RECOVERED/NOT RESOLVED",
    "AESCAN": "N",
    "AESCONG": "N",
    "AESDISAB": "N",
    "AESDTH": "N",
    "AESHOSP": "N",
    "AESLIFE": "N",
    "AESOD": "N",
    "EPOCH": "TREATMENT",
    "AESTDTC": "2012-12-09",
    "AEENDTC": "",
    "AESTDY": 25.0,
    "AEENDY": "",
    "AEENRTPT": "ONGOING",
    "AEENTPT": "2013-01-14"
  },
  {
    "STUDYID": "CDISCPILOT01",
    "DOMAIN": "AE",
    "USUBJID": "CDISC002",
    "AESEQ": 7.0,
    "AELNKID": "7",
    "AETERM": "CONFUSIONAL STATE",
    "AELLT": "",
    "AELLTCD": "",
    "AEDECOD": "",
    "AEPTCD": "",
    "AEHLT": "",
    "AEHLTCD": "",
    "AEHLGT": "",
    "AEHLGTCD": "",
    "AEBODSYS": "",
    "AEBDSYCD": "",
    "AESOC": "",
    "AESOCCD": "",
    "AESEV": "MODERATE",
    "AESER": "N",
    "AEACN": "DOSE NOT CHANGED",
    "AEREL": "NOT RELATED",
    "AEOUT": "NOT RECOVERED/NOT RESOLVED",
    "AESCAN": "N",
    "AESCONG": "N",
    "AESDISAB": "N",
    "AESDTH": "N",
    "AESHOSP": "N",
    "AESLIFE": "N",
    "AESOD": "N",
    "EPOCH": "TREATMENT",
    "AESTDTC": "2013-01-11",
    "AEENDTC": "",
    "AESTDY": 58.0,
    "AEENDY": "",
    "AEENRTPT": "ONGOING",
    "AEENTPT": "2013-01-14"
  },
  {
    "STUDYID": "CDISCPILOT01",
    "DOMAIN": "AE",
    "USUBJID": "CDISC002",
    "AESEQ": 8.0,
    "AELNKID": "8",
    "AETERM": "DYSPNOEA",
    "AELLT": "",
    "AELLTCD": "",
    "AEDECOD": "",
    "AEPTCD": "",
    "AEHLT": "",
    "AEHLTCD": "",
    "AEHLGT": "",
    "AEHLGTCD": "",
    "AEBODSYS": "",
    "AEBDSYCD": "",
    "AESOC": "",
    "AESOCCD": "",
    "AESEV": "MODERATE",
    "AESER": "N",
    "AEACN": "DOSE NOT CHANGED",
    "AEREL": "NOT RELATED",
    "AEOUT": "NOT RECOVERED/NOT RESOLVED",
    "AESCAN": "N",
    "AESCONG": "N",
    "AESDISAB": "N",
    "AESDTH": "N",
    "AESHOSP": "N",
    "AESLIFE": "N",
    "AESOD": "N",
    "EPOCH": "TREATMENT",
    "AESTDTC": "2013-01-11",
    "AEENDTC": "",
    "AESTDY": 58.0,
    "AEENDY": "",
    "AEENRTPT": "ONGOING",
    "AEENTPT": "2013-01-14"
  },
  {
    "STUDYID": "CDISCPILOT01",
    "DOMAIN": "AE",
    "USUBJID": "CDISC002",
    "AESEQ": 9.0,
    "AELNKID": "9",
    "AETERM": "SUDDEN DEATH",
    "AELLT": "",
    "AELLTCD": "",
    "AEDECOD": "",
    "AEPTCD": "",
    "AEHLT": "",
    "AEHLTCD": "",
    "AEHLGT": "",
    "AEHLGTCD": "",
    "AEBODSYS": "",
    "AEBDSYCD": "",
    "AESOC": "",
    "AESOCCD": "",
    "AESEV": "SEVERE",
    "AESER": "Y",
    "AEACN": "DRUG WITHDRAWN",
    "AEREL": "NOT RELATED",
    "AEOUT": "FATAL",
    "AESCAN": "N",
    "AESCONG": "N",
    "AESDISAB": "N",
    "AESDTH": "Y",
    "AESHOSP": "N",
    "AESLIFE": "Y",
    "AESOD": "N",
    "EPOCH": "TREATMENT",
    "AESTDTC": "2013-01-14",
    "AEENDTC": "2013-01-14",
    "AESTDY": 61.0,
    "AEENDY": 61.0,
    "AEENRTPT": "",
    "AEENTPT": ""
  },
  {
    "STUDYID": "CDISCPILOT01",
    "DOMAIN": "AE",
    "USUBJID": "CDISC003",
    "AESEQ": 1.0,
    "AELNKID": "1",
    "AETERM": "HYPERHIDROSIS",
    "AELLT": "",
    "AELLTCD": "",
    "AEDECOD": "",
    "AEPTCD": "",
    "AEHLT": "",
    "AEHLTCD": "",
    "AEHLGT": "",
    "AEHLGTCD": "",
    "AEBODSYS": "",
    "AEBDSYCD": "",
    "AESOC": "",
    "AESOCCD": "",
    "AESEV": "MILD",
    "AESER": "N",
    "AEACN": "DOSE NOT CHANGED",
    "AEREL": "POSSIBLY RELATED",
    "AEOUT": "NOT RECOVERED/NOT RESOLVED",
    "AESCAN": "N",
    "AESCONG": "N",
    "AESDISAB": "N",
    "AESDTH": "N",
    "AESHOSP": "N",
    "AESLIFE": "N",
    "AESOD": "N",
    "EPOCH": "TREATMENT",
    "AESTDTC": "2013-08-30",
    "AEENDTC": "",
    "AESTDY": 2.0,
    "AEENDY": "",
    "AEENRTPT": "ONGOING",
    "AEENTPT": "2013-02-13"
  },
  {
    "STUDYID": "CDISCPILOT01",
    "DOMAIN": "AE",
    "USUBJID": "CDISC003",
    "AESEQ": 2.0,
    "AELNKID": "2",
    "AETERM": "STOMACH DISCOMFORT",
    "AELLT": "",
    "AELLTCD": "",
    "AEDECOD": "",
    "AEPTCD": "",
    "AEHLT": "",
    "AEHLTCD": "",
    "AEHLGT": "",
    "AEHLGTCD": "",
    "AEBODSYS": "",
    "AEBDSYCD": "",
    "AESOC": "",
    "AESOCCD": "",
    "AESEV": "MILD",
    "AESER": "N",
    "AEACN": "DOSE NOT CHANGED",
    "AEREL": "POSSIBLY RELATED",
    "AEOUT": "NOT RECOVERED/NOT RESOLVED",
    "AESCAN": "N",
    "AESCONG": "N",
    "AESDISAB": "N",
    "AESDTH": "N",
    "AESHOSP": "N",
    "AESLIFE": "N",
    "AESOD": "N",
    "EPOCH": "TREATMENT",
    "AESTDTC": "2013-08-30",
    "AEENDTC": "",
    "AESTDY": 2.0,
    "AEENDY": "",
    "AEENRTPT": "ONGOING",
    "AEENTPT": "2013-02-13"
  },
  {
    "STUDYID": "CDISCPILOT01",
    "DOMAIN": "AE",
    "USUBJID": "CDISC003",
    "AESEQ": 3.0,
    "AELNKID": "3",
    "AETERM": "PAIN",
    "AELLT": "",
    "AELLTCD": "",
    "AEDECOD": "",
    "AEPTCD": "",
    "AEHLT": "",
    "AEHLTCD": "",
    "AEHLGT": "",
    "AEHLGTCD": "",
    "AEBODSYS": "",
    "AEBDSYCD": "",
    "AESOC": "",
    "AESOCCD": "",
    "AESEV": "MILD",
    "AESER": "N",
    "AEACN": "DOSE NOT CHANGED",
    "AEREL": "POSSIBLY RELATED",
    "AEOUT": "NOT RECOVERED/NOT RESOLVED",
    "AESCAN": "N",
    "AESCONG": "N",
    "AESDISAB": "N",
    "AESDTH": "N",
    "AESHOSP": "N",
    "AESLIFE": "N",
    "AESOD": "N",
    "EPOCH": "TREATMENT",
    "AESTDTC": "2013-08-31",
    "AEENDTC": "",
    "AESTDY": 3.0,
    "AEENDY": "",
    "AEENRTPT": "ONGOING",
    "AEENTPT": "2013-02-13"
  },
  {
    "STUDYID": "CDISCPILOT01",
    "DOMAIN": "AE",
    "USUBJID": "CDISC003",
    "AESEQ": 4.0,
    "AELNKID": "4",
    "AETERM": "NASAL CONGESTION",
    "AELLT": "",
    "AELLTCD": "",
    "AEDECOD": "",
    "AEPTCD": "",
    "AEHLT": "",
    "AEHLTCD": "",
    "AEHLGT": "",
    "AEHLGTCD": "",
    "AEBODSYS": "",
    "AEBDSYCD": "",
    "AESOC": "",
    "AESOCCD": "",
    "AESEV": "MILD",
    "AESER": "N",
    "AEACN": "DOSE NOT CHANGED",
    "AEREL": "NOT RELATED",
    "AEOUT": "NOT RECOVERED/NOT RESOLVED",
    "AESCAN": "N",
    "AESCONG": "N",
    "AESDISAB": "N",
    "AESDTH": "N",
    "AESHOSP": "N",
    "AESLIFE": "N",
    "AESOD": "N",
    "EPOCH": "TREATMENT",
    "AESTDTC": "2013-09-01",
    "AEENDTC": "",
    "AESTDY": 4.0,
    "AEENDY": "",
    "AEENRTPT": "ONGOING",
    "AEENTPT": "2013-02-13"
  },
  {
    "STUDYID": "CDISCPILOT01",
    "DOMAIN": "AE",
    "USUBJID": "CDISC003",
    "AESEQ": 5.0,
    "AELNKID": "5",
    "AETERM": "MALAISE",
    "AELLT": "",
    "AELLTCD": "",
    "AEDECOD": "",
    "AEPTCD": "",
    "AEHLT": "",
    "AEHLTCD": "",
    "AEHLGT": "",
    "AEHLGTCD": "",
    "AEBODSYS": "",
    "AEBDSYCD": "",
    "AESOC": "",
    "AESOCCD": "",
    "AESEV": "MODERATE",
    "AESER": "N",
    "AEACN": "DOSE NOT CHANGED",
    "AEREL": "UNLIKELY RELATED",
    "AEOUT": "NOT RECOVERED/NOT RESOLVED",
    "AESCAN": "N",
    "AESCONG": "N",
    "AESDISAB": "N",
    "AESDTH": "N",
    "AESHOSP": "N",
    "AESLIFE": "N",
    "AESOD": "N",
    "EPOCH": "TREATMENT",
    "AESTDTC": "2013-09-02",
    "AEENDTC": "",
    "AESTDY": 5.0,
    "AEENDY": "",
    "AEENRTPT": "ONGOING",
    "AEENTPT": "2013-02-13"
  },
  {
    "STUDYID": "CDISCPILOT01",
    "DOMAIN": "AE",
    "USUBJID": "CDISC003",
    "AESEQ": 6.0,
    "AELNKID": "6",
    "AETERM": "MYALGIA",
    "AELLT": "",
    "AELLTCD": "",
    "AEDECOD": "",
    "AEPTCD": "",
    "AEHLT": "",
    "AEHLTCD": "",
    "AEHLGT": "",
    "AEHLGTCD": "",
    "AEBODSYS": "",
    "AEBDSYCD": "",
    "AESOC": "",
    "AESOCCD": "",
    "AESEV": "MILD",
    "AESER": "N",
    "AEACN": "DOSE NOT CHANGED",
    "AEREL": "POSSIBLY RELATED",
    "AEOUT": "NOT RECOVERED/NOT RESOLVED",
    "AESCAN": "N",
    "AESCONG": "N",
    "AESDISAB": "N",
    "AESDTH": "N",
    "AESHOSP": "N",
    "AESLIFE": "N",
    "AESOD": "N",
    "EPOCH": "TREATMENT",
    "AESTDTC": "2013-09-02",
    "AEENDTC": "",
    "AESTDY": 5.0,
    "AEENDY": "",
    "AEENRTPT": "ONGOING",
    "AEENTPT": "2013-02-13"
  },
  {
    "STUDYID": "CDISCPILOT01",
    "DOMAIN": "AE",
    "USUBJID": "CDISC003",
    "AESEQ": 7.0,
    "AELNKID": "7",
    "AETERM": "PHARYNGOLARYNGEAL PAIN",
    "AELLT": "",
    "AELLTCD": "",
    "AEDECOD": "",
    "AEPTCD": "",
    "AEHLT": "",
    "AEHLTCD": "",
    "AEHLGT": "",
    "AEHLGTCD": "",
    "AEBODSYS": "",
    "AEBDSYCD": "",
    "AESOC": "",
    "AESOCCD": "",
    "AESEV": "MILD",
    "AESER": "N",
    "AEACN": "DOSE NOT CHANGED",
    "AEREL": "NOT RELATED",
    "AEOUT": "NOT RECOVERED/NOT RESOLVED",
    "AESCAN": "N",
    "AESCONG": "N",
    "AESDISAB": "N",
    "AESDTH": "N",
    "AESHOSP": "N",
    "AESLIFE": "N",
    "AESOD": "N",
    "EPOCH": "TREATMENT",
    "AESTDTC": "2013-09-02",
    "AEENDTC": "",
    "AESTDY": 5.0,
    "AEENDY": "",
    "AEENRTPT": "ONGOING",
    "AEENTPT": "2013-02-13"
  },
  {
    "STUDYID": "CDISCPILOT01",
    "DOMAIN": "AE",
    "USUBJID": "CDISC003",
    "AESEQ": 8.0,
    "AELNKID": "8",
    "AETERM": "PRODUCTIVE COUGH",
    "AELLT": "",
    "AELLTCD": "",
    "AEDECOD": "",
    "AEPTCD": "",
    "AEHLT": "",
    "AEHLTCD": "",
    "AEHLGT": "",
    "AEHLGTCD": "",
    "AEBODSYS": "",
    "AEBDSYCD": "",
    "AESOC": "",
    "AESOCCD": "",
    "AESEV": "MILD",
    "AESER": "N",
    "AEACN": "DOSE NOT CHANGED",
    "AEREL": "NOT RELATED",
    "AEOUT": "NOT RECOVERED/NOT RESOLVED",
    "AESCAN": "N",
    "AESCONG": "N",
    "AESDISAB": "N",
    "AESDTH": "N",
    "AESHOSP": "N",
    "AESLIFE": "N",
    "AESOD": "N",
    "EPOCH": "TREATMENT",
    "AESTDTC": "2013-09-02",
    "AEENDTC": "",
    "AESTDY": 5.0,
    "AEENDY": "",
    "AEENRTPT": "ONGOING",
    "AEENTPT": "2013-02-13"
  },
  {
    "STUDYID": "CDISCPILOT01",
    "DOMAIN": "AE",
    "USUBJID": "CDISC003",
    "AESEQ": 9.0,
    "AELNKID": "9",
    "AETERM": "DIZZINESS",
    "AELLT": "",
    "AELLTCD": "",
    "AEDECOD": "",
    "AEPTCD": "",
    "AEHLT": "",
    "AEHLTCD": "",
    "AEHLGT": "",
    "AEHLGTCD": "",
    "AEBODSYS": "",
    "AEBDSYCD": "",
    "AESOC": "",
    "AESOCCD": "",
    "AESEV": "MODERATE",
    "AESER": "N",
    "AEACN": "DOSE NOT CHANGED",
    "AEREL": "UNLIKELY RELATED",
    "AEOUT": "RECOVERED/RESOLVED",
    "AESCAN": "N",
    "AESCONG": "N",
    "AESDISAB": "N",
    "AESDTH": "N",
    "AESHOSP": "N",
    "AESLIFE": "N",
    "AESOD": "N",
    "EPOCH": "TREATMENT",
    "AESTDTC": "2013-09-02",
    "AEENDTC": "2013-09-03",
    "AESTDY": 5.0,
    "AEENDY": 6.0,
    "AEENRTPT": "",
    "AEENTPT": ""
  },
  {
    "STUDYID": "CDISCPILOT01",
    "DOMAIN": "AE",
    "USUBJID": "CDISC003",
    "AESEQ": 10.0,
    "AELNKID": "10",
    "AETERM": "DIZZINESS",
    "AELLT": "",
    "AELLTCD": "",
    "AEDECOD": "",
    "AEPTCD": "",
    "AEHLT": "",
    "AEHLTCD": "",
    "AEHLGT": "",
    "AEHLGTCD": "",
    "AEBODSYS": "",
    "AEBDSYCD": "",
    "AESOC": "",
    "AESOCCD": "",
    "AESEV": "MILD",
    "AESER": "N",
    "AEACN": "DOSE NOT CHANGED",
    "AEREL": "POSSIBLY RELATED",
    "AEOUT": "NOT RECOVERED/NOT RESOLVED",
    "AESCAN": "N",
    "AESCONG": "N",
    "AESDISAB": "N",
    "AESDTH": "N",
    "AESHOSP": "N",
    "AESLIFE": "N",
    "AESOD": "N",
    "EPOCH": "TREATMENT",
    "AESTDTC": "2013-09-04",
    "AEENDTC": "",
    "AESTDY": 7.0,
    "AEENDY": "",
    "AEENRTPT": "ONGOING",
    "AEENTPT": "2013-02-13"
  },
  {
    "STUDYID": "CDISCPILOT01",
    "DOMAIN": "AE",
    "USUBJID": "CDISC003",
    "AESEQ": 11.0,
    "AELNKID": "11",
    "AETERM": "CONTUSION",
    "AELLT": "",
    "AELLTCD": "",
    "AEDECOD": "",
    "AEPTCD": "",
    "AEHLT": "",
    "AEHLTCD": "",
    "AEHLGT": "",
    "AEHLGTCD": "",
    "AEBODSYS": "",
    "AEBDSYCD": "",
    "AESOC": "",
    "AESOCCD": "",
    "AESEV": "MILD",
    "AESER": "N",
    "AEACN": "DOSE NOT CHANGED",
    "AEREL": "UNLIKELY RELATED",
    "AEOUT": "RECOVERED/RESOLVED",
    "AESCAN": "N",
    "AESCONG": "N",
    "AESDISAB": "N",
    "AESDTH": "N",
    "AESHOSP": "N",
    "AESLIFE": "N",
    "AESOD": "N",
    "EPOCH": "TREATMENT",
    "AESTDTC": "2013-09-05",
    "AEENDTC": "2013-10-08",
    "AESTDY": 8.0,
    "AEENDY": 41.0,
    "AEENRTPT": "",
    "AEENTPT": ""
  },
  {
    "STUDYID": "CDISCPILOT01",
    "DOMAIN": "AE",
    "USUBJID": "CDISC003",
    "AESEQ": 12.0,
    "AELNKID": "12",
    "AETERM": "HEADACHE",
    "AELLT": "",
    "AELLTCD": "",
    "AEDECOD": "",
    "AEPTCD": "",
    "AEHLT": "",
    "AEHLTCD": "",
    "AEHLGT": "",
    "AEHLGTCD": "",
    "AEBODSYS": "",
    "AEBDSYCD": "",
    "AESOC": "",
    "AESOCCD": "",
    "AESEV": "MILD",
    "AESER": "N",
    "AEACN": "DOSE NOT CHANGED",
    "AEREL": "NOT RELATED",
    "AEOUT": "NOT RECOVERED/NOT RESOLVED",
    "AESCAN": "N",
    "AESCONG": "N",
    "AESDISAB": "N",
    "AESDTH": "N",
    "AESHOSP": "N",
    "AESLIFE": "N",
    "AESOD": "N",
    "EPOCH": "TREATMENT",
    "AESTDTC": "2013-09-15",
    "AEENDTC": "",
    "AESTDY": 18.0,
    "AEENDY": "",
    "AEENRTPT": "ONGOING",
    "AEENTPT": "2013-02-13"
  },
  {
    "STUDYID": "CDISCPILOT01",
    "DOMAIN": "AE",
    "USUBJID": "CDISC003",
    "AESEQ": 13.0,
    "AELNKID": "13",
    "AETERM": "EPISTAXIS",
    "AELLT": "",
    "AELLTCD": "",
    "AEDECOD": "",
    "AEPTCD": "",
    "AEHLT": "",
    "AEHLTCD": "",
    "AEHLGT": "",
    "AEHLGTCD": "",
    "AEBODSYS": "",
    "AEBDSYCD": "",
    "AESOC": "",
    "AESOCCD": "",
    "AESEV": "MILD",
    "AESER": "Y",
    "AEACN": "DOSE NOT CHANGED",
    "AEREL": "UNLIKELY RELATED",
    "AEOUT": "NOT RECOVERED/NOT RESOLVED",
    "AESCAN": "N",
    "AESCONG": "N",
    "AESDISAB": "N",
    "AESDTH": "N",
    "AESHOSP": "N",
    "AESLIFE": "N",
    "AESOD": "N",
    "EPOCH": "TREATMENT",
    "AESTDTC": "2013-09-30",
    "AEENDTC": "",
    "AESTDY": 33.0,
    "AEENDY": "",
    "AEENRTPT": "ONGOING",
    "AEENTPT": "2013-02-13"
  },
  {
    "STUDYID": "CDISCPILOT01",
    "DOMAIN": "AE",
    "USUBJID": "CDISC003",
    "AESEQ": 14.0,
    "AELNKID": "14",
    "AETERM": "INJECTION SITE REACTION",
    "AELLT": "",
    "AELLTCD": "",
    "AEDECOD": "",
    "AEPTCD": "",
    "AEHLT": "",
    "AEHLTCD": "",
    "AEHLGT": "",
    "AEHLGTCD": "",
    "AEBODSYS": "",
    "AEBDSYCD": "",
    "AESOC": "",
    "AESOCCD": "",
    "AESEV": "MILD",
    "AESER": "N",
    "AEACN": "DOSE NOT CHANGED",
    "AEREL": "RELATED",
    "AEOUT": "NOT RECOVERED/NOT RESOLVED",
    "AESCAN": "N",
    "AESCONG": "N",
    "AESDISAB": "N",
    "AESDTH": "N",
    "AESHOSP": "N",
    "AESLIFE": "N",
    "AESOD": "N",
    "EPOCH": "TREATMENT",
    "AESTDTC": "2013-10-15",
    "AEENDTC": "",
    "AESTDY": 48.0,
    "AEENDY": "",
    "AEENRTPT": "ONGOING",
    "AEENTPT": "2013-02-13"
  },
  {
    "STUDYID": "CDISCPILOT01",
    "DOMAIN": "AE",
    "USUBJID": "CDISC003",
    "AESEQ": 15.0,
    "AELNKID": "16",
    "AETERM": "RESPIRATORY TRACT CONGESTION",
    "AELLT": "",
    "AELLTCD": "",
    "AEDECOD": "",
    "AEPTCD": "",
    "AEHLT": "",
    "AEHLTCD": "",
    "AEHLGT": "",
    "AEHLGTCD": "",
    "AEBODSYS": "",
    "AEBDSYCD": "",
    "AESOC": "",
    "AESOCCD": "",
    "AESEV": "MILD",
    "AESER": "N",
    "AEACN": "DOSE NOT CHANGED",
    "AEREL": "NOT RELATED",
    "AEOUT": "NOT RECOVERED/NOT RESOLVED",
    "AESCAN": "N",
    "AESCONG": "N",
    "AESDISAB": "N",
    "AESDTH": "N",
    "AESHOSP": "N",
    "AESLIFE": "N",
    "AESOD": "N",
    "EPOCH": "TREATMENT",
    "AESTDTC": "2013-10-23",
    "AEENDTC": "",
    "AESTDY": 56.0,
    "AEENDY": "",
    "AEENRTPT": "ONGOING",
    "AEENTPT": "2013-02-13"
  },
  {
    "STUDYID": "CDISCPILOT01",
    "DOMAIN": "AE",
    "USUBJID": "CDISC003",
    "AESEQ": 16.0,
    "AELNKID": "17",
    "AETERM": "RHINITIS",
    "AELLT": "",
    "AELLTCD": "",
    "AEDECOD": "",
    "AEPTCD": "",
    "AEHLT": "",
    "AEHLTCD": "",
    "AEHLGT": "",
    "AEHLGTCD": "",
    "AEBODSYS": "",
    "AEBDSYCD": "",
    "AESOC": "",
    "AESOCCD": "",
    "AESEV": "MILD",
    "AESER": "N",
    "AEACN": "DOSE NOT CHANGED",
    "AEREL": "NOT RELATED",
    "AEOUT": "NOT RECOVERED/NOT RESOLVED",
    "AESCAN": "N",
    "AESCONG": "N",
    "AESDISAB": "N",
    "AESDTH": "N",
    "AESHOSP": "N",
    "AESLIFE": "N",
    "AESOD": "N",
    "EPOCH": "TREATMENT",
    "AESTDTC": "2013-10-23",
    "AEENDTC": "",
    "AESTDY": 56.0,
    "AEENDY": "",
    "AEENRTPT": "ONGOING",
    "AEENTPT": "2013-02-13"
  },
  {
    "STUDYID": "CDISCPILOT01",
    "DOMAIN": "AE",
    "USUBJID": "CDISC003",
    "AESEQ": 17.0,
    "AELNKID": "18",
    "AETERM": "FEELING ABNORMAL",
    "AELLT": "",
    "AELLTCD": "",
    "AEDECOD": "",
    "AEPTCD": "",
    "AEHLT": "",
    "AEHLTCD": "",
    "AEHLGT": "",
    "AEHLGTCD": "",
    "AEBODSYS": "",
    "AEBDSYCD": "",
    "AESOC": "",
    "AESOCCD": "",
    "AESEV": "MILD",
    "AESER": "N",
    "AEACN": "DOSE NOT CHANGED",
    "AEREL": "POSSIBLY RELATED",
    "AEOUT": "NOT RECOVERED/NOT RESOLVED",
    "AESCAN": "N",
    "AESCONG": "N",
    "AESDISAB": "N",
    "AESDTH": "N",
    "AESHOSP": "N",
    "AESLIFE": "N",
    "AESOD": "N",
    "EPOCH": "TREATMENT",
    "AESTDTC": "2013-10-24",
    "AEENDTC": "",
    "AESTDY": 57.0,
    "AEENDY": "",
    "AEENRTPT": "ONGOING",
    "AEENTPT": "2013-02-13"
  },
  {
    "STUDYID": "CDISCPILOT01",
    "DOMAIN": "AE",
    "USUBJID": "CDISC003",
    "AESEQ": 18.0,
    "AELNKID": "19",
    "AETERM": "LIBIDO DECREASED",
    "AELLT": "",
    "AELLTCD": "",
    "AEDECOD": "",
    "AEPTCD": "",
    "AEHLT": "",
    "AEHLTCD": "",
    "AEHLGT": "",
    "AEHLGTCD": "",
    "AEBODSYS": "",
    "AEBDSYCD": "",
    "AESOC": "",
    "AESOCCD": "",
    "AESEV": "MILD",
    "AESER": "N",
    "AEACN": "DOSE NOT CHANGED",
    "AEREL": "POSSIBLY RELATED",
    "AEOUT": "NOT RECOVERED/NOT RESOLVED",
    "AESCAN": "N",
    "AESCONG": "N",
    "AESDISAB": "N",
    "AESDTH": "N",
    "AESHOSP": "N",
    "AESLIFE": "N",
    "AESOD": "N",
    "EPOCH": "TREATMENT",
    "AESTDTC": "2013-10-24",
    "AEENDTC": "",
    "AESTDY": 57.0,
    "AEENDY": "",
    "AEENRTPT": "ONGOING",
    "AEENTPT": "2013-02-13"
  },
  {
    "STUDYID": "CDISCPILOT01",
    "DOMAIN": "AE",
    "USUBJID": "CDISC003",
    "AESEQ": 19.0,
    "AELNKID": "20",
    "AETERM": "LISTLESS",
    "AELLT": "",
    "AELLTCD": "",
    "AEDECOD": "",
    "AEPTCD": "",
    "AEHLT": "",
    "AEHLTCD": "",
    "AEHLGT": "",
    "AEHLGTCD": "",
    "AEBODSYS": "",
    "AEBDSYCD": "",
    "AESOC": "",
    "AESOCCD": "",
    "AESEV": "MILD",
    "AESER": "N",
    "AEACN": "DRUG WITHDRAWN",
    "AEREL": "POSSIBLY RELATED",
    "AEOUT": "NOT RECOVERED/NOT RESOLVED",
    "AESCAN": "N",
    "AESCONG": "N",
    "AESDISAB": "N",
    "AESDTH": "N",
    "AESHOSP": "N",
    "AESLIFE": "N",
    "AESOD": "N",
    "EPOCH": "TREATMENT",
    "AESTDTC": "2013-10-24",
    "AEENDTC": "",
    "AESTDY": 57.0,
    "AEENDY": "",
    "AEENRTPT": "ONGOING",
    "AEENTPT": "2013-02-13"
  },
  {
    "STUDYID": "CDISCPILOT01",
    "DOMAIN": "AE",
    "USUBJID": "CDISC005",
    "AESEQ": 1.0,
    "AELNKID": "1",
    "AETERM": "INJECTION SITE REACTION",
    "AELLT": "",
    "AELLTCD": "",
    "AEDECOD": "",
    "AEPTCD": "",
    "AEHLT": "",
    "AEHLTCD": "",
    "AEHLGT": "",
    "AEHLGTCD": "",
    "AEBODSYS": "",
    "AEBDSYCD": "",
    "AESOC": "",
    "AESOCCD": "",
    "AESEV": "MILD",
    "AESER": "N",
    "AEACN": "DOSE NOT CHANGED",
    "AEREL": "RELATED",
    "AEOUT": "RECOVERED/RESOLVED",
    "AESCAN": "N",
    "AESCONG": "N",
    "AESDISAB": "N",
    "AESDTH": "N",
    "AESHOSP": "N",
    "AESLIFE": "N",
    "AESOD": "N",
    "EPOCH": "TREATMENT",
    "AESTDTC": "2013-02-07",
    "AEENDTC": "2013-02-07",
    "AESTDY": 4.0,
    "AEENDY": 4.0,
    "AEENRTPT": "",
    "AEENTPT": ""
  },
  {
    "STUDYID": "CDISCPILOT01",
    "DOMAIN": "AE",
    "USUBJID": "CDISC005",
    "AESEQ": 2.0,
    "AELNKID": "2",
    "AETERM": "INJECTION SITE REACTION",
    "AELLT": "",
    "AELLTCD": "",
    "AEDECOD": "",
    "AEPTCD": "",
    "AEHLT": "",
    "AEHLTCD": "",
    "AEHLGT": "",
    "AEHLGTCD": "",
    "AEBODSYS": "",
    "AEBDSYCD": "",
    "AESOC": "",
    "AESOCCD": "",
    "AESEV": "MILD",
    "AESER": "N",
    "AEACN": "DOSE NOT CHANGED",
    "AEREL": "POSSIBLY RELATED",
    "AEOUT": "NOT RECOVERED/NOT RESOLVED",
    "AESCAN": "N",
    "AESCONG": "N",
    "AESDISAB": "N",
    "AESDTH": "N",
    "AESHOSP": "N",
    "AESLIFE": "N",
    "AESOD": "N",
    "EPOCH": "TREATMENT",
    "AESTDTC": "2013-03-23",
    "AEENDTC": "",
    "AESTDY": 48.0,
    "AEENDY": "",
    "AEENRTPT": "ONGOING",
    "AEENTPT": "2013-08-06"
  },
  {
    "STUDYID": "CDISCPILOT01",
    "DOMAIN": "AE",
    "USUBJID": "CDISC005",
    "AESEQ": 3.0,
    "AELNKID": "4",
    "AETERM": "INJECTION SITE REACTION",
    "AELLT": "",
    "AELLTCD": "",
    "AEDECOD": "",
    "AEPTCD": "",
    "AEHLT": "",
    "AEHLTCD": "",
    "AEHLGT": "",
    "AEHLGTCD": "",
    "AEBODSYS": "",
    "AEBDSYCD": "",
    "AESOC": "",
    "AESOCCD": "",
    "AESEV": "MILD",
    "AESER": "N",
    "AEACN": "DOSE NOT CHANGED",
    "AEREL": "POSSIBLY RELATED",
    "AEOUT": "RECOVERED/RESOLVED",
    "AESCAN": "N",
    "AESCONG": "N",
    "AESDISAB": "N",
    "AESDTH": "N",
    "AESHOSP": "N",
    "AESLIFE": "N",
    "AESOD": "N",
    "EPOCH": "TREATMENT",
    "AESTDTC": "2013-03-23",
    "AEENDTC": "2013-03-26",
    "AESTDY": 48.0,
    "AEENDY": 51.0,
    "AEENRTPT": "",
    "AEENTPT": ""
  },
  {
    "STUDYID": "CDISCPILOT01",
    "DOMAIN": "AE",
    "USUBJID": "CDISC005",
    "AESEQ": 4.0,
    "AELNKID": "5",
    "AETERM": "INJECTION SITE REACTION",
    "AELLT": "",
    "AELLTCD": "",
    "AEDECOD": "",
    "AEPTCD": "",
    "AEHLT": "",
    "AEHLTCD": "",
    "AEHLGT": "",
    "AEHLGTCD": "",
    "AEBODSYS": "",
    "AEBDSYCD": "",
    "AESOC": "",
    "AESOCCD": "",
    "AESEV": "MILD",
    "AESER": "N",
    "AEACN": "DOSE NOT CHANGED",
    "AEREL": "POSSIBLY RELATED",
    "AEOUT": "NOT RECOVERED/NOT RESOLVED",
    "AESCAN": "N",
    "AESCONG": "N",
    "AESDISAB": "N",
    "AESDTH": "N",
    "AESHOSP": "N",
    "AESLIFE": "N",
    "AESOD": "N",
    "EPOCH": "TREATMENT",
    "AESTDTC": "2013-04-12",
    "AEENDTC": "",
    "AESTDY": 68.0,
    "AEENDY": "",
    "AEENRTPT": "ONGOING",
    "AEENTPT": "2013-08-06"
  },
  {
    "STUDYID": "CDISCPILOT01",
    "DOMAIN": "AE",
    "USUBJID": "CDISC005",
    "AESEQ": 5.0,
    "AELNKID": "7",
    "AETERM": "CHEST DISCOMFORT",
    "AELLT": "",
    "AELLTCD": "",
    "AEDECOD": "",
    "AEPTCD": "",
    "AEHLT": "",
    "AEHLTCD": "",
    "AEHLGT": "",
    "AEHLGTCD": "",
    "AEBODSYS": "",
    "AEBDSYCD": "",
    "AESOC": "",
    "AESOCCD": "",
    "AESEV": "MILD",
    "AESER": "N",
    "AEACN": "DOSE NOT CHANGED",
    "AEREL": "NOT RELATED",
    "AEOUT": "RECOVERED/RESOLVED",
    "AESCAN": "N",
    "AESCONG": "N",
    "AESDISAB": "N",
    "AESDTH": "N",
    "AESHOSP": "N",
    "AESLIFE": "N",
    "AESOD": "N",
    "EPOCH": "TREATMENT",
    "AESTDTC": "2013-06-24",
    "AEENDTC": "2013-06-24",
    "AESTDY": 141.0,
    "AEENDY": 141.0,
    "AEENRTPT": "",
    "AEENTPT": ""
  },
  {
    "STUDYID": "CDISCPILOT01",
    "DOMAIN": "AE",
    "USUBJID": "CDISC005",
    "AESEQ": 6.0,
    "AELNKID": "8",
    "AETERM": "HEADACHE",
    "AELLT": "",
    "AELLTCD": "",
    "AEDECOD": "",
    "AEPTCD": "",
    "AEHLT": "",
    "AEHLTCD": "",
    "AEHLGT": "",
    "AEHLGTCD": "",
    "AEBODSYS": "",
    "AEBDSYCD": "",
    "AESOC": "",
    "AESOCCD": "",
    "AESEV": "MILD",
    "AESER": "N",
    "AEACN": "DOSE NOT CHANGED",
    "AEREL": "NOT RELATED",
    "AEOUT": "RECOVERED/RESOLVED",
    "AESCAN": "N",
    "AESCONG": "N",
    "AESDISAB": "N",
    "AESDTH": "N",
    "AESHOSP": "N",
    "AESLIFE": "N",
    "AESOD": "N",
    "EPOCH": "TREATMENT",
    "AESTDTC": "2013-06-24",
    "AEENDTC": "2013-06-24",
    "AESTDY": 141.0,
    "AEENDY": 141.0,
    "AEENRTPT": "",
    "AEENTPT": ""
  },
  {
    "STUDYID": "CDISCPILOT01",
    "DOMAIN": "AE",
    "USUBJID": "CDISC005",
    "AESEQ": 7.0,
    "AELNKID": "9",
    "AETERM": "COUGH",
    "AELLT": "",
    "AELLTCD": "",
    "AEDECOD": "",
    "AEPTCD": "",
    "AEHLT": "",
    "AEHLTCD": "",
    "AEHLGT": "",
    "AEHLGTCD": "",
    "AEBODSYS": "",
    "AEBDSYCD": "",
    "AESOC": "",
    "AESOCCD": "",
    "AESEV": "MODERATE",
    "AESER": "N",
    "AEACN": "DOSE NOT CHANGED",
    "AEREL": "NOT RELATED",
    "AEOUT": "RECOVERED/RESOLVED",
    "AESCAN": "N",
    "AESCONG": "N",
    "AESDISAB": "N",
    "AESDTH": "N",
    "AESHOSP": "N",
    "AESLIFE": "N",
    "AESOD": "N",
    "EPOCH": "TREATMENT",
    "AESTDTC": "2013-07-17",
    "AEENDTC": "2013-07-26",
    "AESTDY": 164.0,
    "AEENDY": 173.0,
    "AEENRTPT": "",
    "AEENTPT": ""
  },
  {
    "STUDYID": "CDISCPILOT01",
    "DOMAIN": "AE",
    "USUBJID": "CDISC007",
    "AESEQ": 1.0,
    "AELNKID": "1",
    "AETERM": "INJECTION SITE REACTION",
    "AELLT": "",
    "AELLTCD": "",
    "AEDECOD": "",
    "AEPTCD": "",
    "AEHLT": "",
    "AEHLTCD": "",
    "AEHLGT": "",
    "AEHLGTCD": "",
    "AEBODSYS": "",
    "AEBDSYCD": "",
    "AESOC": "",
    "AESOCCD": "",
    "AESEV": "MODERATE",
    "AESER": "N",
    "AEACN": "DRUG WITHDRAWN",
    "AEREL": "POSSIBLY RELATED",
    "AEOUT": "NOT RECOVERED/NOT RESOLVED",
    "AESCAN": "N",
    "AESCONG": "N",
    "AESDISAB": "N",
    "AESDTH": "N",
    "AESHOSP": "N",
    "AESLIFE": "N",
    "AESOD": "N",
    "EPOCH": "TREATMENT",
    "AESTDTC": "2013-01-19",
    "AEENDTC": "",
    "AESTDY": 15.0,
    "AEENDY": "",
    "AEENRTPT": "ONGOING",
    "AEENTPT": "2013-06-20"
  },
  {
    "STUDYID": "CDISCPILOT01",
    "DOMAIN": "AE",
    "USUBJID": "CDISC007",
    "AESEQ": 2.0,
    "AELNKID": "5",
    "AETERM": "SALIVARY HYPERSECRETION",
    "AELLT": "",
    "AELLTCD": "",
    "AEDECOD": "",
    "AEPTCD": "",
    "AEHLT": "",
    "AEHLTCD": "",
    "AEHLGT": "",
    "AEHLGTCD": "",
    "AEBODSYS": "",
    "AEBDSYCD": "",
    "AESOC": "",
    "AESOCCD": "",
    "AESEV": "MILD",
    "AESER": "N",
    "AEACN": "DOSE NOT CHANGED",
    "AEREL": "POSSIBLY RELATED",
    "AEOUT": "NOT RECOVERED/NOT RESOLVED",
    "AESCAN": "N",
    "AESCONG": "N",
    "AESDISAB": "N",
    "AESDTH": "N",
    "AESHOSP": "N",
    "AESLIFE": "N",
    "AESOD": "N",
    "EPOCH": "TREATMENT",
    "AESTDTC": "2013-01-19",
    "AEENDTC": "",
    "AESTDY": 15.0,
    "AEENDY": "",
    "AEENRTPT": "ONGOING",
    "AEENTPT": "2013-06-20"
  },
  {
    "STUDYID": "CDISCPILOT01",
    "DOMAIN": "AE",
    "USUBJID": "CDISC007",
    "AESEQ": 3.0,
    "AELNKID": "6",
    "AETERM": "PARAESTHESIA",
    "AELLT": "",
    "AELLTCD": "",
    "AEDECOD": "",
    "AEPTCD": "",
    "AEHLT": "",
    "AEHLTCD": "",
    "AEHLGT": "",
    "AEHLGTCD": "",
    "AEBODSYS": "",
    "AEBDSYCD": "",
    "AESOC": "",
    "AESOCCD": "",
    "AESEV": "MILD",
    "AESER": "N",
    "AEACN": "DOSE NOT CHANGED",
    "AEREL": "NOT RELATED",
    "AEOUT": "RECOVERED/RESOLVED",
    "AESCAN": "N",
    "AESCONG": "N",
    "AESDISAB": "N",
    "AESDTH": "N",
    "AESHOSP": "N",
    "AESLIFE": "N",
    "AESOD": "N",
    "EPOCH": "TREATMENT",
    "AESTDTC": "2013-02-08",
    "AEENDTC": "2013-02-08",
    "AESTDY": 35.0,
    "AEENDY": 35.0,
    "AEENRTPT": "",
    "AEENTPT": ""
  },
  {
    "STUDYID": "CDISCPILOT01",
    "DOMAIN": "AE",
    "USUBJID": "CDISC008",
    "AESEQ": 1.0,
    "AELNKID": "1",
    "AETERM": "COMPLETED SUICIDE",
    "AELLT": "",
    "AELLTCD": "",
    "AEDECOD": "",
    "AEPTCD": "",
    "AEHLT": "",
    "AEHLTCD": "",
    "AEHLGT": "",
    "AEHLGTCD": "",
    "AEBODSYS": "",
    "AEBDSYCD": "",
    "AESOC": "",
    "AESOCCD": "",
    "AESEV": "SEVERE",
    "AESER": "Y",
    "AEACN": "DRUG WITHDRAWN",
    "AEREL": "NOT RELATED",
    "AEOUT": "FATAL",
    "AESCAN": "N",
    "AESCONG": "N",
    "AESDISAB": "N",
    "AESDTH": "Y",
    "AESHOSP": "N",
    "AESLIFE": "N",
    "AESOD": "N",
    "EPOCH": "TREATMENT",
    "AESTDTC": "2014-10-31",
    "AEENDTC": "2014-10-31",
    "AESTDY": 174.0,
    "AEENDY": 174.0,
    "AEENRTPT": "",
    "AEENTPT": ""
  },
  {
    "STUDYID": "CDISCPILOT01",
    "DOMAIN": "AE",
    "USUBJID": "CDISC009",
    "AESEQ": 1.0,
    "AELNKID": "1",
    "AETERM": "HEART RATE IRREGULAR",
    "AELLT": "",
    "AELLTCD": "",
    "AEDECOD": "",
    "AEPTCD": "",
    "AEHLT": "",
    "AEHLTCD": "",
    "AEHLGT": "",
    "AEHLGTCD": "",
    "AEBODSYS": "",
    "AEBDSYCD": "",
    "AESOC": "",
    "AESOCCD": "",
    "AESEV": "MILD",
    "AESER": "N",
    "AEACN": "DOSE NOT CHANGED",
    "AEREL": "POSSIBLY RELATED",
    "AEOUT": "RECOVERED/RESOLVED",
    "AESCAN": "N",
    "AESCONG": "N",
    "AESDISAB": "N",
    "AESDTH": "N",
    "AESHOSP": "N",
    "AESLIFE": "N",
    "AESOD": "N",
    "EPOCH": "TREATMENT",
    "AESTDTC": "2013-01-19",
    "AEENDTC": "2013-01-19",
    "AESTDY": 90.0,
    "AEENDY": 90.0,
    "AEENRTPT": "",
    "AEENTPT": ""
  },
  {
    "STUDYID": "CDISCPILOT01",
    "DOMAIN": "AE",
    "USUBJID": "CDISC009",
    "AESEQ": 2.0,
    "AELNKID": "2",
    "AETERM": "DIZZINESS",
    "AELLT": "",
    "AELLTCD": "",
    "AEDECOD": "",
    "AEPTCD": "",
    "AEHLT": "",
    "AEHLTCD": "",
    "AEHLGT": "",
    "AEHLGTCD": "",
    "AEBODSYS": "",
    "AEBDSYCD": "",
    "AESOC": "",
    "AESOCCD": "",
    "AESEV": "MILD",
    "AESER": "N",
    "AEACN": "DOSE NOT CHANGED",
    "AEREL": "POSSIBLY RELATED",
    "AEOUT": "RECOVERED/RESOLVED",
    "AESCAN": "N",
    "AESCONG": "N",
    "AESDISAB": "N",
    "AESDTH": "N",
    "AESHOSP": "N",
    "AESLIFE": "N",
    "AESOD": "N",
    "EPOCH": "TREATMENT",
    "AESTDTC": "2013-02-04",
    "AEENDTC": "2013-02-08",
    "AESTDY": 106.0,
    "AEENDY": 110.0,
    "AEENRTPT": "",
    "AEENTPT": ""
  },
  {
    "STUDYID": "CDISCPILOT01",
    "DOMAIN": "AE",
    "USUBJID": "CDISC009",
    "AESEQ": 3.0,
    "AELNKID": "3",
    "AETERM": "HEADACHE",
    "AELLT": "",
    "AELLTCD": "",
    "AEDECOD": "",
    "AEPTCD": "",
    "AEHLT": "",
    "AEHLTCD": "",
    "AEHLGT": "",
    "AEHLGTCD": "",
    "AEBODSYS": "",
    "AEBDSYCD": "",
    "AESOC": "",
    "AESOCCD": "",
    "AESEV": "MILD",
    "AESER": "N",
    "AEACN": "DOSE NOT CHANGED",
    "AEREL": "NOT RELATED",
    "AEOUT": "NOT RECOVERED/NOT RESOLVED",
    "AESCAN": "N",
    "AESCONG": "N",
    "AESDISAB": "N",
    "AESDTH": "N",
    "AESHOSP": "N",
    "AESLIFE": "N",
    "AESOD": "N",
    "EPOCH": "TREATMENT",
    "AESTDTC": "2013-02-16",
    "AEENDTC": "",
    "AESTDY": 118.0,
    "AEENDY": "",
    "AEENRTPT": "ONGOING",
    "AEENTPT": "2013-04-28"
  },
  {
    "STUDYID": "CDISCPILOT01",
    "DOMAIN": "AE",
    "USUBJID": "CDISC009",
    "AESEQ": 4.0,
    "AELNKID": "4",
    "AETERM": "HEART RATE IRREGULAR",
    "AELLT": "",
    "AELLTCD": "",
    "AEDECOD": "",
    "AEPTCD": "",
    "AEHLT": "",
    "AEHLTCD": "",
    "AEHLGT": "",
    "AEHLGTCD": "",
    "AEBODSYS": "",
    "AEBDSYCD": "",
    "AESOC": "",
    "AESOCCD": "",
    "AESEV": "MILD",
    "AESER": "N",
    "AEACN": "DOSE NOT CHANGED",
    "AEREL": "POSSIBLY RELATED",
    "AEOUT": "RECOVERED/RESOLVED",
    "AESCAN": "N",
    "AESCONG": "N",
    "AESDISAB": "N",
    "AESDTH": "N",
    "AESHOSP": "N",
    "AESLIFE": "N",
    "AESOD": "N",
    "EPOCH": "TREATMENT",
    "AESTDTC": "2013-03-16",
    "AEENDTC": "2013-03-16",
    "AESTDY": 146.0,
    "AEENDY": 146.0,
    "AEENRTPT": "",
    "AEENTPT": ""
  }
]