[
  {
    "STUDYID": "CDISCPILOT01",
    "DOMAIN": "DM",
    "USUBJID": "CDISC001",
    "SUBJID": "1115",
    "RFSTDTC": "2012-11-30",
    "RFENDTC": "2013-01-23",
    "RFXSTDTC": "2012-11-30",
    "RFXENDTC": "2013-01-23",
    "RFICDTC": "2012-11-23",
    "RFPENDTC": "2013-05-20",
    "DTHDTC": "",
    "DTHFL": "",
    "SITEID": "701",
    "BRTHDTC": "1928",
    "AGE": 84.0,
    "AGEU": "YEARS",
    "SEX": "M",
    "RACE": "WHITE",
    "ETHNIC": "NOT HISPANIC OR LATINO",
    "ARMCD": "ZAN_LOW",
    "ARM": "Zanomaline Low Dose (54 mg)",
    "ACTARMCD": "ZAN_LOW",
    "ACTARM": "Zanomaline Low Dose (54 mg)",
    "ARMNRS": "",
    "ACTARMUD": "",
    "COUNTRY": "USA"
  },
  {
    "STUDYID": "CDISCPILOT01",
    "DOMAIN": "DM",
    "USUBJID": "CDISC002",
    "SUBJID": "1211",
    "RFSTDTC": "2012-11-15",
    "RFENDTC": "2013-01-14",
    "RFXSTDTC": "2012-11-15",
    "RFXENDTC": "2013-01-12",
    "RFICDTC": "2012-10-30",
    "RFPENDTC": "2013-01-14",
    "DTHDTC": "2013-01-14",
    "DTHFL": "Y",
    "SITEID": "701",
    "BRTHDTC": "1936",
    "AGE": 76.0,
    "AGEU": "YEARS",
    "SEX": "F",
    "RACE": "WHITE",
    "ETHNIC": "NOT HISPANIC OR LATINO",
    "ARMCD": "ZAN_LOW",
    "ARM": "Zanomaline Low Dose (54 mg)",
    "ACTARMCD": "ZAN_LOW",
    "ACTARM": "Zanomaline Low Dose (54 mg)",
    "ARMNRS": "",
    "ACTARMUD": "",
    "COUNTRY": "USA"
  },
  {
    "STUDYID": "CDISCPILOT01",
    "DOMAIN": "DM",
    "USUBJID": "CDISC003",
    "SUBJID": "1302",
    "RFSTDTC": "2013-08-29",
    "RFENDTC": "2013-11-05",
    "RFXSTDTC": "2013-08-29",
    "RFXENDTC": "2013-11-05",
    "RFICDTC": "2013-08-20",
    "RFPENDTC": "2014-02-13",
    "DTHDTC": "",
    "DTHFL": "",
    "SITEID": "701",
    "BRTHDTC": "1951",
    "AGE": 61.0,
    "AGEU": "YEARS",
    "SEX": "M",
    "RACE": "WHITE",
    "ETHNIC": "NOT HISPANIC OR LATINO",
    "ARMCD": "ZAN_HIGH",
    "ARM": "Zanomaline High Dose (81 mg)",
    "ACTARMCD": "ZAN_HIGH",
    "ACTARM": "Zanomaline High Dose (81 mg)",
    "ARMNRS": "",
    "ACTARMUD": "",
    "COUNTRY": "USA"
  },
  {
    "STUDYID": "CDISCPILOT01",
    "DOMAIN": "DM",
    "USUBJID": "CDISC004",
    "SUBJID": "1345",
    "RFSTDTC": "2013-10-08",
    "RFENDTC": "2014-03-18",
    "RFXSTDTC": "2013-10-08",
    "RFXENDTC": "2014-03-18",
    "RFICDTC": "2013-10-01",
    "RFPENDTC": "2014-03-18",
    "DTHDTC": "",
    "DTHFL": "",
    "SITEID": "701",
    "BRTHDTC": "1950",
    "AGE": 63.0,
    "AGEU": "YEARS",
    "SEX": "F",
    "RACE": "WHITE",
    "ETHNIC": "NOT HISPANIC OR LATINO",
    "ARMCD": "PLACEBO",
    "ARM": "Placebo",
    "ACTARMCD": "PLACEBO",
    "ACTARM": "Placebo",
    "ARMNRS": "",
    "ACTARMUD": "",
    "COUNTRY": "USA"
  },
  {
    "STUDYID": "CDISCPILOT01",
    "DOMAIN": "DM",
    "USUBJID": "CDISC005",
    "SUBJID": "1383",
    "RFSTDTC": "2013-02-04",
    "RFENDTC": "2013-08-06",
    "RFXSTDTC": "2013-02-04",
    "RFXENDTC": "2013-08-06",
    "RFICDTC": "2013-01-22",
    "RFPENDTC": "2013-08-06",
    "DTHDTC": "",
    "DTHFL": "",
    "SITEID": "701",
    "BRTHDTC": "1941",
    "AGE": 72.0,
    "AGEU": "YEARS",
    "SEX": "F",
    "RACE": "WHITE",
    "ETHNIC": "NOT HISPANIC OR LATINO",
    "ARMCD": "ZAN_HIGH",
    "ARM": "Zanomaline High Dose (81 mg)",
    "ACTARMCD": "ZAN_HIGH",
    "ACTARM": "Zanomaline High Dose (81 mg)",
    "ARMNRS": "",
    "ACTARMUD": "",
    "COUNTRY": "USA"
  },
  {
    "STUDYID": "CDISCPILOT01",
    "DOMAIN": "DM",
    "USUBJID": "CDISC006",
    "SUBJID": "1429",
    "RFSTDTC": "2013-03-19",
    "RFENDTC": "2013-04-30",
    "RFXSTDTC": "2013-03-19",
    "RFXENDTC": "2013-04-30",
    "RFICDTC": "2013-02-25",
    "RFPENDTC": "2013-04-30",
    "DTHDTC": "",
    "DTHFL": "",
    "SITEID": "701",
    "BRTHDTC": "1929",
    "AGE": 84.0,
    "AGEU": "YEARS",
    "SEX": "F",
    "RACE": "WHITE",
    "ETHNIC": "NOT HISPANIC OR LATINO",
    "ARMCD": "ZAN_LOW",
    "ARM": "Zanomaline Low Dose (54 mg)",
    "ACTARMCD": "ZAN_LOW",
    "ACTARM": "Zanomaline Low Dose (54 mg)",
    "ARMNRS": "",
    "ACTARMUD": "",
    "COUNTRY": "USA"
  },
  {
    "STUDYID": "CDISCPILOT01",
    "DOMAIN": "DM",
    "USUBJID": "CDISC007",
    "SUBJID": "1444",
    "RFSTDTC": "2013-01-05",
    "RFENDTC": "2013-02-13",
    "RFXSTDTC": "2013-01-05",
    "RFXENDTC": "2013-02-12",
    "RFICDTC": "2012-12-31",
    "RFPENDTC": "2013-06-20",
    "DTHDTC": "",
    "DTHFL": "",
    "SITEID": "701",
    "BRTHDTC": "1949",
    "AGE": 63.0,
    "AGEU": "YEARS",
    "SEX": "M",
    "RACE": "WHITE",
    "ETHNIC": "HISPANIC OR LATINO",
    "ARMCD": "ZAN_HIGH",
    "ARM": "Zanomaline High Dose (81 mg)",
    "ACTARMCD": "ZAN_HIGH",
    "ACTARM": "Zanomaline High Dose (81 mg)",
    "ARMNRS": "",
    "ACTARMUD": "",
    "COUNTRY": "USA"
  },
  {
    "STUDYID": "CDISCPILOT01",
    "DOMAIN": "DM",
    "USUBJID": "CDISC008",
    "SUBJID": "1445",
    "RFSTDTC": "2014-05-11",
    "RFENDTC": "2014-11-01",
    "RFXSTDTC": "2014-05-11",
    "RFXENDTC": "2014-11-01",
    "RFICDTC": "2014-05-01",
    "RFPENDTC": "2014-11-01",
    "DTHDTC": "2014-11-01",
    "DTHFL": "Y",
    "SITEID": "704",
    "BRTHDTC": "1939",
    "AGE": 75.0,
    "AGEU": "YEARS",
    "SEX": "M",
    "RACE": "MULTIPLE",
    "ETHNIC": "NOT HISPANIC OR LATINO",
    "ARMCD": "PLACEBO",
    "ARM": "Placebo",
    "ACTARMCD": "PLACEBO",
    "ACTARM": "Placebo",
    "ARMNRS": "",
    "ACTARMUD": "",
    "COUNTRY": "USA"
  },
  {
    "STUDYID": "CDISCPILOT01",
    "DOMAIN": "DM",
    "USUBJID": "CDISC009",
    "SUBJID": "1087",
    "RFSTDTC": "2012-10-22",
    "RFENDTC": "2013-04-28",
    "RFXSTDTC": "2012-10-22",
    "RFXENDTC": "2013-04-28",
    "RFICDTC": "2012-10-06",
    "RFPENDTC": "2013-04-28",
    "DTHDTC": "",
    "DTHFL": "",
    "SITEID": "708",
    "BRTHDTC": "1938",
    "AGE": 74.0,
    "AGEU": "YEARS",
    "SEX": "F",
    "RACE": "WHITE",
    "ETHNIC": "NOT HISPANIC OR LATINO",
    "ARMCD": "PLACEBO",
    "ARM": "Placebo",
    "ACTARMCD": "PLACEBO",
    "ACTARM": "Placebo",
    "ARMNRS": "",
    "ACTARMUD": "",
    "COUNTRY": "USA"
  },
  {
    "STUDYID": "CDISCPILOT01",
    "DOMAIN": "DM",
    "USUBJID": "CDISC010",
    "SUBJID": "1236",
    "RFSTDTC": "2013-09-21",
    "RFENDTC": "2013-09-26",
    "RFXSTDTC": "2013-09-21",
    "RFXENDTC": "2013-09-21",
    "RFICDTC": "2013-09-08",
    "RFPENDTC": "2013-09-26",
    "DTHDTC": "",
    "DTHFL": "",
    "SITEID": "708",
    "BRTHDTC": "1927",
    "AGE": 86.0,
    "AGEU": "YEARS",
    "SEX": "F",
    "RACE": "WHITE",
    "ETHNIC": "NOT HISPANIC OR LATINO",
    "ARMCD": "ZAN_HIGH",
    "ARM": "Zanomaline High Dose (81 mg)",
    "ACTARMCD": "ZAN_HIGH",
    "ACTARM": "Zanomaline High Dose (81 mg)",
    "ARMNRS": "",
    "ACTARMUD": "",
    "COUNTRY": "USA"
  }
]