[
  {
    "STUDYID": "CDISCPILOT01",
    "DOMAIN": "LB",
    "USUBJID": "CDISC001",
    "LBSEQ": 2.0,
    "LBTESTCD": "ALP",
    "LBTEST": "Alkaline Phosphatase",
    "LBCAT": "CHEMISTRY",
    "LBORRES": "93",
    "LBORRESU": "U/L",
    "LBORNRLO": "35",
    "LBORNRHI": "115",
    "LBSTRESC": "93",
    "LBSTRESN": 93.0,
    "LBSTRESU": "U/L",
    "LBSTNRLO": 35.0,
    "LBSTNRHI": 115.0,
    "LBNRIND": "NORMAL",
    "LBLOBXFL": "Y",
    "VISITNUM": 1.0,
    "VISIT": "SCREENING 1",
    "EPOCH": "SCREENING",
    "LBDTC": "2012-11-23T11:20",
    "LBDY": -7.0
  },
  {
    "STUDYID": "CDISCPILOT01",
    "DOMAIN": "LB",
    "USUBJID": "CDISC001",
    "LBSEQ": 3.0,
    "LBTESTCD": "ALT",
    "LBTEST": "Alanine Aminotransferase",
    "LBCAT": "CHEMISTRY",
    "LBORRES": "18",
    "LBORRESU": "U/L",
    "LBORNRLO": "6",
    "LBORNRHI": "35",
    "LBSTRESC": "18",
    "LBSTRESN": 18.0,
    "LBSTRESU": "U/L",
    "LBSTNRLO": 6.0,
    "LBSTNRHI": 35.0,
    "LBNRIND": "NORMAL",
    "LBLOBXFL": "Y",
    "VISITNUM": 1.0,
    "VISIT": "SCREENING 1",
    "EPOCH": "SCREENING",
    "LBDTC": "2012-11-23T11:20",
    "LBDY": -7.0
  },
  {
    "STUDYID": "CDISCPILOT01",
    "DOMAIN": "LB",
    "USUBJID": "CDISC001",
    "LBSEQ": 4.0,
    "LBTESTCD": "AST",
    "LBTEST": "Aspartate Aminotransferase",
    "LBCAT": "CHEMISTRY",
    "LBORRES": "26",
    "LBORRESU": "U/L",
    "LBORNRLO": "11",
    "LBORNRHI": "36",
    "LBSTRESC": "26",
    "LBSTRESN": 26.0,
    "LBSTRESU": "U/L",
    "LBSTNRLO": 11.0,
    "LBSTNRHI": 36.0,
    "LBNRIND": "NORMAL",
    "LBLOBXFL": "Y",
    "VISITNUM": 1.0,
    "VISIT": "SCREENING 1",
    "EPOCH": "SCREENING",
    "LBDTC": "2012-11-23T11:20",
    "LBDY": -7.0
  },
  {
    "STUDYID": "CDISCPILOT01",
    "DOMAIN": "LB",
    "USUBJID": "CDISC001",
    "LBSEQ": 39.0,
    "LBTESTCD": "ALP",
    "LBTEST": "Alkaline Phosphatase",
    "LBCAT": "CHEMISTRY",
    "LBORRES": "88",
    "LBORRESU": "U/L",
    "LBORNRLO": "35",
    "LBORNRHI": "115",
    "LBSTRESC": "88",
    "LBSTRESN": 88.0,
    "LBSTRESU": "U/L",
    "LBSTNRLO": 35.0,
    "LBSTNRHI": 115.0,
    "LBNRIND": "NORMAL",
    "LBLOBXFL": "",
    "VISITNUM": 4.0,
    "VISIT": "WEEK 2",
    "EPOCH": "TREATMENT",
    "LBDTC": "2012-12-13T14:05",
    "LBDY": 14.0
  },
  {
    "STUDYID": "CDISCPILOT01",
    "DOMAIN": "LB",
    "USUBJID": "CDISC001",
    "LBSEQ": 40.0,
    "LBTESTCD": "ALT",
    "LBTEST": "Alanine Aminotransferase",
    "LBCAT": "CHEMISTRY",
    "LBORRES": "15",
    "LBORRESU": "U/L",
    "LBORNRLO": "6",
    "LBORNRHI": "35",
    "LBSTRESC": "15",
    "LBSTRESN": 15.0,
    "LBSTRESU": "U/L",
    "LBSTNRLO": 6.0,
    "LBSTNRHI": 35.0,
    "LBNRIND": "NORMAL",
    "LBLOBXFL": "",
    "VISITNUM": 4.0,
    "VISIT": "WEEK 2",
    "EPOCH": "TREATMENT",
    "LBDTC": "2012-12-13T14:05",
    "LBDY": 14.0
  },
  {
    "STUDYID": "CDISCPILOT01",
    "DOMAIN": "LB",
    "USUBJID": "CDISC001",
    "LBSEQ": 41.0,
    "LBTESTCD": "AST",
    "LBTEST": "Aspartate Aminotransferase",
    "LBCAT": "CHEMISTRY",
    "LBORRES": "25",
    "LBORRESU": "U/L",
    "LBORNRLO": "11",
    "LBORNRHI": "36",
    "LBSTRESC": "25",
    "LBSTRESN": 25.0,
    "LBSTRESU": "U/L",
    "LBSTNRLO": 11.0,
    "LBSTNRHI": 36.0,
    "LBNRIND": "NORMAL",
    "LBLOBXFL": "",
    "VISITNUM": 4.0,
    "VISIT": "WEEK 2",
    "EPOCH": "TREATMENT",
    "LBDTC": "2012-12-13T14:05",
    "LBDY": 14.0
  },
  {
    "STUDYID": "CDISCPILOT01",
    "DOMAIN": "LB",
    "USUBJID": "CDISC001",
    "LBSEQ": 74.0,
    "LBTESTCD": "ALP",
    "LBTEST": "Alkaline Phosphatase",
    "LBCAT": "CHEMISTRY",
    "LBORRES": "91",
    "LBORRESU": "U/L",
    "LBORNRLO": "35",
    "LBORNRHI": "115",
    "LBSTRESC": "91",
    "LBSTRESN": 91.0,
    "LBSTRESU": "U/L",
    "LBSTNRLO": 35.0,
    "LBSTNRHI": 115.0,
    "LBNRIND": "NORMAL",
    "LBLOBXFL": "",
    "VISITNUM": 5.0,
    "VISIT": "WEEK 4",
    "EPOCH": "TREATMENT",
    "LBDTC": "2012-12-26T08:44",
    "LBDY": 27.0
  },
  {
    "STUDYID": "CDISCPILOT01",
    "DOMAIN": "LB",
    "USUBJID": "CDISC001",
    "LBSEQ": 75.0,
    "LBTESTCD": "ALT",
    "LBTEST": "Alanine Aminotransferase",
    "LBCAT": "CHEMISTRY",
    "LBORRES": "13",
    "LBORRESU": "U/L",
    "LBORNRLO": "6",
    "LBORNRHI": "35",
    "LBSTRESC": "13",
    "LBSTRESN": 13.0,
    "LBSTRESU": "U/L",
    "LBSTNRLO": 6.0,
    "LBSTNRHI": 35.0,
    "LBNRIND": "NORMAL",
    "LBLOBXFL": "",
    "VISITNUM": 5.0,
    "VISIT": "WEEK 4",
    "EPOCH": "TREATMENT",
    "LBDTC": "2012-12-26T08:44",
    "LBDY": 27.0
  },
  {
    "STUDYID": "CDISCPILOT01",
    "DOMAIN": "LB",
    "USUBJID": "CDISC001",
    "LBSEQ": 76.0,
    "LBTESTCD": "AST",
    "LBTEST": "Aspartate Aminotransferase",
    "LBCAT": "CHEMISTRY",
    "LBORRES": "20",
    "LBORRESU": "U/L",
    "LBORNRLO": "11",
    "LBORNRHI": "36",
    "LBSTRESC": "20",
    "LBSTRESN": 20.0,
    "LBSTRESU": "U/L",
    "LBSTNRLO": 11.0,
    "LBSTNRHI": 36.0,
    "LBNRIND": "NORMAL",
    "LBLOBXFL": "",
    "VISITNUM": 5.0,
    "VISIT": "WEEK 4",
    "EPOCH": "TREATMENT",
    "LBDTC": "2012-12-26T08:44",
    "LBDY": 27.0
  },
  {
    "STUDYID": "CDISCPILOT01",
    "DOMAIN": "LB",
    "USUBJID": "CDISC001",
    "LBSEQ": 104.0,
    "LBTESTCD": "ALP",
    "LBTEST": "Alkaline Phosphatase",
    "LBCAT": "CHEMISTRY",
    "LBORRES": "101",
    "LBORRESU": "U/L",
    "LBORNRLO": "35",
    "LBORNRHI": "115",
    "LBSTRESC": "101",
    "LBSTRESN": 101.0,
    "LBSTRESU": "U/L",
    "LBSTNRLO": 35.0,
    "LBSTNRHI": 115.0,
    "LBNRIND": "NORMAL",
    "LBLOBXFL": "",
    "VISITNUM": 5.01,
    "VISIT": "WEEK 4: UNSCHEDULED 01",
    "EPOCH": "TREATMENT",
    "LBDTC": "2012-12-28T09:27",
    "LBDY": 29.0
  },
  {
    "STUDYID": "CDISCPILOT01",
    "DOMAIN": "LB",
    "USUBJID": "CDISC001",
    "LBSEQ": 105.0,
    "LBTESTCD": "ALT",
    "LBTEST": "Alanine Aminotransferase",
    "LBCAT": "CHEMISTRY",
    "LBORRES": "16",
    "LBORRESU": "U/L",
    "LBORNRLO": "6",
    "LBORNRHI": "35",
    "LBSTRESC": "16",
    "LBSTRESN": 16.0,
    "LBSTRESU": "U/L",
    "LBSTNRLO": 6.0,
    "LBSTNRHI": 35.0,
    "LBNRIND": "NORMAL",
    "LBLOBXFL": "",
    "VISITNUM": 5.01,
    "VISIT": "WEEK 4: UNSCHEDULED 01",
    "EPOCH": "TREATMENT",
    "LBDTC": "2012-12-28T09:27",
    "LBDY": 29.0
  },
  {
    "STUDYID": "CDISCPILOT01",
    "DOMAIN": "LB",
    "USUBJID": "CDISC001",
    "LBSEQ": 106.0,
    "LBTESTCD": "AST",
    "LBTEST": "Aspartate Aminotransferase",
    "LBCAT": "CHEMISTRY",
    "LBORRES": "23",
    "LBORRESU": "U/L",
    "LBORNRLO": "11",
    "LBORNRHI": "36",
    "LBSTRESC": "23",
    "LBSTRESN": 23.0,
    "LBSTRESU": "U/L",
    "LBSTNRLO": 11.0,
    "LBSTNRHI": 36.0,
    "LBNRIND": "NORMAL",
    "LBLOBXFL": "",
    "VISITNUM": 5.01,
    "VISIT": "WEEK 4: UNSCHEDULED 01",
    "EPOCH": "TREATMENT",
    "LBDTC": "2012-12-28T09:27",
    "LBDY": 29.0
  },
  {
    "STUDYID": "CDISCPILOT01",
    "DOMAIN": "LB",
    "USUBJID": "CDISC001",
    "LBSEQ": 119.0,
    "LBTESTCD": "ALP",
    "LBTEST": "Alkaline Phosphatase",
    "LBCAT": "CHEMISTRY",
    "LBORRES": "98",
    "LBORRESU": "U/L",
    "LBORNRLO": "35",
    "LBORNRHI": "115",
    "LBSTRESC": "98",
    "LBSTRESN": 98.0,
    "LBSTRESU": "U/L",
    "LBSTNRLO": 35.0,
    "LBSTNRHI": 115.0,
    "LBNRIND": "NORMAL",
    "LBLOBXFL": "",
    "VISITNUM": 7.0,
    "VISIT": "WEEK 6",
    "EPOCH": "TREATMENT",
    "LBDTC": "2013-01-10T15:20",
    "LBDY": 42.0
  },
  {
    "STUDYID": "CDISCPILOT01",
    "DOMAIN": "LB",
    "USUBJID": "CDISC001",
    "LBSEQ": 120.0,
    "LBTESTCD": "ALT",
    "LBTEST": "Alanine Aminotransferase",
    "LBCAT": "CHEMISTRY",
    "LBORRES": "18",
    "LBORRESU": "U/L",
    "LBORNRLO": "6",
    "LBORNRHI": "35",
    "LBSTRESC": "18",
    "LBSTRESN": 18.0,
    "LBSTRESU": "U/L",
    "LBSTNRLO": 6.0,
    "LBSTNRHI": 35.0,
    "LBNRIND": "NORMAL",
    "LBLOBXFL": "",
    "VISITNUM": 7.0,
    "VISIT": "WEEK 6",
    "EPOCH": "TREATMENT",
    "LBDTC": "2013-01-10T15:20",
    "LBDY": 42.0
  },
  {
    "STUDYID": "CDISCPILOT01",
    "DOMAIN": "LB",
    "USUBJID": "CDISC001",
    "LBSEQ": 121.0,
    "LBTESTCD": "AST",
    "LBTEST": "Aspartate Aminotransferase",
    "LBCAT": "CHEMISTRY",
    "LBORRES": "25",
    "LBORRESU": "U/L",
    "LBORNRLO": "11",
    "LBORNRHI": "36",
    "LBSTRESC": "25",
    "LBSTRESN": 25.0,
    "LBSTRESU": "U/L",
    "LBSTNRLO": 11.0,
    "LBSTNRHI": 36.0,
    "LBNRIND": "NORMAL",
    "LBLOBXFL": "",
    "VISITNUM": 7.0,
    "VISIT": "WEEK 6",
    "EPOCH": "TREATMENT",
    "LBDTC": "2013-01-10T15:20",
    "LBDY": 42.0
  },
  {
    "STUDYID": "CDISCPILOT01",
    "DOMAIN": "LB",
    "USUBJID": "CDISC001",
    "LBSEQ": 149.0,
    "LBTESTCD": "ALP",
    "LBTEST": "Alkaline Phosphatase",
    "LBCAT": "CHEMISTRY",
    "LBORRES": "98",
    "LBORRESU": "U/L",
    "LBORNRLO": "35",
    "LBORNRHI": "115",
    "LBSTRESC": "98",
    "LBSTRESN": 98.0,
    "LBSTRESU": "U/L",
    "LBSTNRLO": 35.0,
    "LBSTNRHI": 115.0,
    "LBNRIND": "NORMAL",
    "LBLOBXFL": "",
    "VISITNUM": 8.0,
    "VISIT": "WEEK 8",
    "EPOCH": "TREATMENT",
    "LBDTC": "2013-01-23T12:13",
    "LBDY": 55.0
  },
  {
    "STUDYID": "CDISCPILOT01",
    "DOMAIN": "LB",
    "USUBJID": "CDISC001",
    "LBSEQ": 150.0,
    "LBTESTCD": "ALT",
    "LBTEST": "Alanine Aminotransferase",
    "LBCAT": "CHEMISTRY",
    "LBORRES": "16",
    "LBORRESU": "U/L",
    "LBORNRLO": "6",
    "LBORNRHI": "35",
    "LBSTRESC": "16",
    "LBSTRESN": 16.0,
    "LBSTRESU": "U/L",
    "LBSTNRLO": 6.0,
    "LBSTNRHI": 35.0,
    "LBNRIND": "NORMAL",
    "LBLOBXFL": "",
    "VISITNUM": 8.0,
    "VISIT": "WEEK 8",
    "EPOCH": "TREATMENT",
    "LBDTC": "2013-01-23T12:13",
    "LBDY": 55.0
  },
  {
    "STUDYID": "CDISCPILOT01",
    "DOMAIN": "LB",
    "USUBJID": "CDISC001",
    "LBSEQ": 151.0,
    "LBTESTCD": "AST",
    "LBTEST": "Aspartate Aminotransferase",
    "LBCAT": "CHEMISTRY",
    "LBORRES": "25",
    "LBORRESU": "U/L",
    "LBORNRLO": "11",
    "LBORNRHI": "36",
    "LBSTRESC": "25",
    "LBSTRESN": 25.0,
    "LBSTRESU": "U/L",
    "LBSTNRLO": 11.0,
    "LBSTNRHI": 36.0,
    "LBNRIND": "NORMAL",
    "LBLOBXFL": "",
    "VISITNUM": 8.0,
    "VISIT": "WEEK 8",
    "EPOCH": "TREATMENT",
    "LBDTC": "2013-01-23T12:13",
    "LBDY": 55.0
  },
  {
    "STUDYID": "CDISCPILOT01",
    "DOMAIN": "LB",
    "USUBJID": "CDISC002",
    "LBSEQ": 2.0,
    "LBTESTCD": "ALP",
    "LBTEST": "Alkaline Phosphatase",
    "LBCAT": "CHEMISTRY",
    "LBORRES": "106",
    "LBORRESU": "U/L",
    "LBORNRLO": "35",
    "LBORNRHI": "115",
    "LBSTRESC": "106",
    "LBSTRESN": 106.0,
    "LBSTRESU": "U/L",
    "LBSTNRLO": 35.0,
    "LBSTNRHI": 115.0,
    "LBNRIND": "NORMAL",
    "LBLOBXFL": "Y",
    "VISITNUM": 1.0,
    "VISIT": "SCREENING 1",
    "EPOCH": "SCREENING",
    "LBDTC": "2012-10-30T14:26",
    "LBDY": -16.0
  },
  {
    "STUDYID": "CDISCPILOT01",
    "DOMAIN": "LB",
    "USUBJID": "CDISC002",
    "LBSEQ": 3.0,
    "LBTESTCD": "ALT",
    "LBTEST": "Alanine Aminotransferase",
    "LBCAT": "CHEMISTRY",
    "LBORRES": "19",
    "LBORRESU": "U/L",
    "LBORNRLO": "6",
    "LBORNRHI": "32",
    "LBSTRESC": "19",
    "LBSTRESN": 19.0,
    "LBSTRESU": "U/L",
    "LBSTNRLO": 6.0,
    "LBSTNRHI": 32.0,
    "LBNRIND": "NORMAL",
    "LBLOBXFL": "Y",
    "VISITNUM": 1.0,
    "VISIT": "SCREENING 1",
    "EPOCH": "SCREENING",
    "LBDTC": "2012-10-30T14:26",
    "LBDY": -16.0
  },
  {
    "STUDYID": "CDISCPILOT01",
    "DOMAIN": "LB",
    "USUBJID": "CDISC002",
    "LBSEQ": 4.0,
    "LBTESTCD": "AST",
    "LBTEST": "Aspartate Aminotransferase",
    "LBCAT": "CHEMISTRY",
    "LBORRES": "20",
    "LBORRESU": "U/L",
    "LBORNRLO": "9",
    "LBORNRHI": "34",
    "LBSTRESC": "20",
    "LBSTRESN": 20.0,
    "LBSTRESU": "U/L",
    "LBSTNRLO": 9.0,
    "LBSTNRHI": 34.0,
    "LBNRIND": "NORMAL",
    "LBLOBXFL": "Y",
    "VISITNUM": 1.0,
    "VISIT": "SCREENING 1",
    "EPOCH": "SCREENING",
    "LBDTC": "2012-10-30T14:26",
    "LBDY": -16.0
  },
  {
    "STUDYID": "CDISCPILOT01",
    "DOMAIN": "LB",
    "USUBJID": "CDISC002",
    "LBSEQ": 39.0,
    "LBTESTCD": "ALP",
    "LBTEST": "Alkaline Phosphatase",
    "LBCAT": "CHEMISTRY",
    "LBORRES": "103",
    "LBORRESU": "U/L",
    "LBORNRLO": "35",
    "LBORNRHI": "115",
    "LBSTRESC": "103",
    "LBSTRESN": 103.0,
    "LBSTRESU": "U/L",
    "LBSTNRLO": 35.0,
    "LBSTNRHI": 115.0,
    "LBNRIND": "NORMAL",
    "LBLOBXFL": "",
    "VISITNUM": 4.0,
    "VISIT": "WEEK 2",
    "EPOCH": "TREATMENT",
    "LBDTC": "2012-11-28T10:00",
    "LBDY": 14.0
  },
  {
    "STUDYID": "CDISCPILOT01",
    "DOMAIN": "LB",
    "USUBJID": "CDISC002",
    "LBSEQ": 40.0,
    "LBTESTCD": "ALT",
    "LBTEST": "Alanine Aminotransferase",
    "LBCAT": "CHEMISTRY",
    "LBORRES": "19",
    "LBORRESU": "U/L",
    "LBORNRLO": "6",
    "LBORNRHI": "32",
    "LBSTRESC": "19",
    "LBSTRESN": 19.0,
    "LBSTRESU": "U/L",
    "LBSTNRLO": 6.0,
    "LBSTNRHI": 32.0,
    "LBNRIND": "NORMAL",
    "LBLOBXFL": "",
    "VISITNUM": 4.0,
    "VISIT": "WEEK 2",
    "EPOCH": "TREATMENT",
    "LBDTC": "2012-11-28T10:00",
    "LBDY": 14.0
  },
  {
    "STUDYID": "CDISCPILOT01",
    "DOMAIN": "LB",
    "USUBJID": "CDISC002",
    "LBSEQ": 41.0,
    "LBTESTCD": "AST",
    "LBTEST": "Aspartate Aminotransferase",
    "LBCAT": "CHEMISTRY",
    "LBORRES": "10",
    "LBORRESU": "U/L",
    "LBORNRLO": "9",
    "LBORNRHI": "34",
    "LBSTRESC": "10",
    "LBSTRESN": 10.0,
    "LBSTRESU": "U/L",
    "LBSTNRLO": 9.0,
    "LBSTNRHI": 34.0,
    "LBNRIND": "NORMAL",
    "LBLOBXFL": "",
    "VISITNUM": 4.0,
    "VISIT": "WEEK 2",
    "EPOCH": "TREATMENT",
    "LBDTC": "2012-11-28T10:00",
    "LBDY": 14.0
  },
  {
    "STUDYID": "CDISCPILOT01",
    "DOMAIN": "LB",
    "USUBJID": "CDISC002",
    "LBSEQ": 74.0,
    "LBTESTCD": "ALP",
    "LBTEST": "Alkaline Phosphatase",
    "LBCAT": "CHEMISTRY",
    "LBORRES": "136",
    "LBORRESU": "U/L",
    "LBORNRLO": "35",
    "LBORNRHI": "115",
    "LBSTRESC": "136",
    "LBSTRESN": 136.0,
    "LBSTRESU": "U/L",
    "LBSTNRLO": 35.0,
    "LBSTNRHI": 115.0,
    "LBNRIND": "HIGH",
    "LBLOBXFL": "",
    "VISITNUM": 5.0,
    "VISIT": "WEEK 4",
    "EPOCH": "TREATMENT",
    "LBDTC": "2012-12-11T12:16",
    "LBDY": 27.0
  },
  {
    "STUDYID": "CDISCPILOT01",
    "DOMAIN": "LB",
    "USUBJID": "CDISC002",
    "LBSEQ": 75.0,
    "LBTESTCD": "ALT",
    "LBTEST": "Alanine Aminotransferase",
    "LBCAT": "CHEMISTRY",
    "LBORRES": "14",
    "LBORRESU": "U/L",
    "LBORNRLO": "6",
    "LBORNRHI": "32",
    "LBSTRESC": "14",
    "LBSTRESN": 14.0,
    "LBSTRESU": "U/L",
    "LBSTNRLO": 6.0,
    "LBSTNRHI": 32.0,
    "LBNRIND": "NORMAL",
    "LBLOBXFL": "",
    "VISITNUM": 5.0,
    "VISIT": "WEEK 4",
    "EPOCH": "TREATMENT",
    "LBDTC": "2012-12-11T12:16",
    "LBDY": 27.0
  },
  {
    "STUDYID": "CDISCPILOT01",
    "DOMAIN": "LB",
    "USUBJID": "CDISC002",
    "LBSEQ": 76.0,
    "LBTESTCD": "AST",
    "LBTEST": "Aspartate Aminotransferase",
    "LBCAT": "CHEMISTRY",
    "LBORRES": "15",
    "LBORRESU": "U/L",
    "LBORNRLO": "9",
    "LBORNRHI": "34",
    "LBSTRESC": "15",
    "LBSTRESN": 15.0,
    "LBSTRESU": "U/L",
    "LBSTNRLO": 9.0,
    "LBSTNRHI": 34.0,
    "LBNRIND": "NORMAL",
    "LBLOBXFL": "",
    "VISITNUM": 5.0,
    "VISIT": "WEEK 4",
    "EPOCH": "TREATMENT",
    "LBDTC": "2012-12-11T12:16",
    "LBDY": 27.0
  },
  {
    "STUDYID": "CDISCPILOT01",
    "DOMAIN": "LB",
    "USUBJID": "CDISC002",
    "LBSEQ": 104.0,
    "LBTESTCD": "ALP",
    "LBTEST": "Alkaline Phosphatase",
    "LBCAT": "CHEMISTRY",
    "LBORRES": "132",
    "LBORRESU": "U/L",
    "LBORNRLO": "35",
    "LBORNRHI": "115",
    "LBSTRESC": "132",
    "LBSTRESN": 132.0,
    "LBSTRESU": "U/L",
    "LBSTNRLO": 35.0,
    "LBSTNRHI": 115.0,
    "LBNRIND": "HIGH",
    "LBLOBXFL": "",
    "VISITNUM": 7.0,
    "VISIT": "WEEK 6",
    "EPOCH": "TREATMENT",
    "LBDTC": "2012-12-25T14:00",
    "LBDY": 41.0
  },
  {
    "STUDYID": "CDISCPILOT01",
    "DOMAIN": "LB",
    "USUBJID": "CDISC002",
    "LBSEQ": 105.0,
    "LBTESTCD": "ALT",
    "LBTEST": "Alanine Aminotransferase",
    "LBCAT": "CHEMISTRY",
    "LBORRES": "15",
    "LBORRESU": "U/L",
    "LBORNRLO": "6",
    "LBORNRHI": "32",
    "LBSTRESC": "15",
    "LBSTRESN": 15.0,
    "LBSTRESU": "U/L",
    "LBSTNRLO": 6.0,
    "LBSTNRHI": 32.0,
    "LBNRIND": "NORMAL",
    "LBLOBXFL": "",
    "VISITNUM": 7.0,
    "VISIT": "WEEK 6",
    "EPOCH": "TREATMENT",
    "LBDTC": "2012-12-25T14:00",
    "LBDY": 41.0
  },
  {
    "STUDYID": "CDISCPILOT01",
    "DOMAIN": "LB",
    "USUBJID": "CDISC002",
    "LBSEQ": 106.0,
    "LBTESTCD": "AST",
    "LBTEST": "Aspartate Aminotransferase",
    "LBCAT": "CHEMISTRY",
    "LBORRES": "15",
    "LBORRESU": "U/L",
    "LBORNRLO": "9",
    "LBORNRHI": "34",
    "LBSTRESC": "15",
    "LBSTRESN": 15.0,
    "LBSTRESU": "U/L",
    "LBSTNRLO": 9.0,
    "LBSTNRHI": 34.0,
    "LBNRIND": "NORMAL",
    "LBLOBXFL": "",
    "VISITNUM": 7.0,
    "VISIT": "WEEK 6",
    "EPOCH": "TREATMENT",
    "LBDTC": "2012-12-25T14:00",
    "LBDY": 41.0
  },
  {
    "STUDYID": "CDISCPILOT01",
    "DOMAIN": "LB",
    "USUBJID": "CDISC002",
    "LBSEQ": 134.0,
    "LBTESTCD": "ALP",
    "LBTEST": "Alkaline Phosphatase",
    "LBCAT": "CHEMISTRY",
    "LBORRES": "183",
    "LBORRESU": "U/L",
    "LBORNRLO": "35",
    "LBORNRHI": "115",
    "LBSTRESC": "183",
    "LBSTRESN": 183.0,
    "LBSTRESU": "U/L",
    "LBSTNRLO": 35.0,
    "LBSTNRHI": 115.0,
    "LBNRIND": "HIGH",
    "LBLOBXFL": "",
    "VISITNUM": 8.0,
    "VISIT": "WEEK 8",
    "EPOCH": "TREATMENT",
    "LBDTC": "2013-01-08T12:13",
    "LBDY": 55.0
  },
  {
    "STUDYID": "CDISCPILOT01",
    "DOMAIN": "LB",
    "USUBJID": "CDISC002",
    "LBSEQ": 135.0,
    "LBTESTCD": "ALT",
    "LBTEST": "Alanine Aminotransferase",
    "LBCAT": "CHEMISTRY",
    "LBORRES": "21",
    "LBORRESU": "U/L",
    "LBORNRLO": "6",
    "LBORNRHI": "32",
    "LBSTRESC": "21",
    "LBSTRESN": 21.0,
    "LBSTRESU": "U/L",
    "LBSTNRLO": 6.0,
    "LBSTNRHI": 32.0,
    "LBNRIND": "NORMAL",
    "LBLOBXFL": "",
    "VISITNUM": 8.0,
    "VISIT": "WEEK 8",
    "EPOCH": "TREATMENT",
    "LBDTC": "2013-01-08T12:13",
    "LBDY": 55.0
  },
  {
    "STUDYID": "CDISCPILOT01",
    "DOMAIN": "LB",
    "USUBJID": "CDISC002",
    "LBSEQ": 136.0,
    "LBTESTCD": "AST",
    "LBTEST": "Aspartate Aminotransferase",
    "LBCAT": "CHEMISTRY",
    "LBORRES": "17",
    "LBORRESU": "U/L",
    "LBORNRLO": "9",
    "LBORNRHI": "34",
    "LBSTRESC": "17",
    "LBSTRESN": 17.0,
    "LBSTRESU": "U/L",
    "LBSTNRLO": 9.0,
    "LBSTNRHI": 34.0,
    "LBNRIND": "NORMAL",
    "LBLOBXFL": "",
    "VISITNUM": 8.0,
    "VISIT": "WEEK 8",
    "EPOCH": "TREATMENT",
    "LBDTC": "2013-01-08T12:13",
    "LBDY": 55.0
  },
  {
    "STUDYID": "CDISCPILOT01",
    "DOMAIN": "LB",
    "USUBJID": "CDISC003",
    "LBSEQ": 2.0,
    "LBTESTCD": "ALP",
    "LBTEST": "Alkaline Phosphatase",
    "LBCAT": "CHEMISTRY",
    "LBORRES": "67",
    "LBORRESU": "U/L",
    "LBORNRLO": "35",
    "LBORNRHI": "115",
    "LBSTRESC": "67",
    "LBSTRESN": 67.0,
    "LBSTRESU": "U/L",
    "LBSTNRLO": 35.0,
    "LBSTNRHI": 115.0,
    "LBNRIND": "NORMAL",
    "LBLOBXFL": "Y",
    "VISITNUM": 1.0,
    "VISIT": "SCREENING 1",
    "EPOCH": "SCREENING",
    "LBDTC": "2013-08-20T12:27",
    "LBDY": -9.0
  },
  {
    "STUDYID": "CDISCPILOT01",
    "DOMAIN": "LB",
    "USUBJID": "CDISC003",
    "LBSEQ": 3.0,
    "LBTESTCD": "ALT",
    "LBTEST": "Alanine Aminotransferase",
    "LBCAT": "CHEMISTRY",
    "LBORRES": "62",
    "LBORRESU": "U/L",
    "LBORNRLO": "6",
    "LBORNRHI": "43",
    "LBSTRESC": "62",
    "LBSTRESN": 62.0,
    "LBSTRESU": "U/L",
    "LBSTNRLO": 6.0,
    "LBSTNRHI": 43.0,
    "LBNRIND": "HIGH",
    "LBLOBXFL": "Y",
    "VISITNUM": 1.0,
    "VISIT": "SCREENING 1",
    "EPOCH": "SCREENING",
    "LBDTC": "2013-08-20T12:27",
    "LBDY": -9.0
  },
  {
    "STUDYID": "CDISCPILOT01",
    "DOMAIN": "LB",
    "USUBJID": "CDISC003",
    "LBSEQ": 4.0,
    "LBTESTCD": "AST",
    "LBTEST": "Aspartate Aminotransferase",
    "LBCAT": "CHEMISTRY",
    "LBORRES": "52",
    "LBORRESU": "U/L",
    "LBORNRLO": "11",
    "LBORNRHI": "36",
    "LBSTRESC": "52",
    "LBSTRESN": 52.0,
    "LBSTRESU": "U/L",
    "LBSTNRLO": 11.0,
    "LBSTNRHI": 36.0,
    "LBNRIND": "HIGH",
    "LBLOBXFL": "Y",
    "VISITNUM": 1.0,
    "VISIT": "SCREENING 1",
    "EPOCH": "SCREENING",
    "LBDTC": "2013-08-20T12:27",
    "LBDY": -9.0
  },
  {
    "STUDYID": "CDISCPILOT01",
    "DOMAIN": "LB",
    "USUBJID": "CDISC003",
    "LBSEQ": 39.0,
    "LBTESTCD": "ALP",
    "LBTEST": "Alkaline Phosphatase",
    "LBCAT": "CHEMISTRY",
    "LBORRES": "61",
    "LBORRESU": "U/L",
    "LBORNRLO": "35",
    "LBORNRHI": "115",
    "LBSTRESC": "61",
    "LBSTRESN": 61.0,
    "LBSTRESU": "U/L",
    "LBSTNRLO": 35.0,
    "LBSTNRHI": 115.0,
    "LBNRIND": "NORMAL",
    "LBLOBXFL": "",
    "VISITNUM": 4.0,
    "VISIT": "WEEK 2",
    "EPOCH": "TREATMENT",
    "LBDTC": "2013-09-15T12:44",
    "LBDY": 18.0
  },
  {
    "STUDYID": "CDISCPILOT01",
    "DOMAIN": "LB",
    "USUBJID": "CDISC003",
    "LBSEQ": 40.0,
    "LBTESTCD": "ALT",
    "LBTEST": "Alanine Aminotransferase",
    "LBCAT": "CHEMISTRY",
    "LBORRES": "31",
    "LBORRESU": "U/L",
    "LBORNRLO": "6",
    "LBORNRHI": "43",
    "LBSTRESC": "31",
    "LBSTRESN": 31.0,
    "LBSTRESU": "U/L",
    "LBSTNRLO": 6.0,
    "LBSTNRHI": 43.0,
    "LBNRIND": "NORMAL",
    "LBLOBXFL": "",
    "VISITNUM": 4.0,
    "VISIT": "WEEK 2",
    "EPOCH": "TREATMENT",
    "LBDTC": "2013-09-15T12:44",
    "LBDY": 18.0
  },
  {
    "STUDYID": "CDISCPILOT01",
    "DOMAIN": "LB",
    "USUBJID": "CDISC003",
    "LBSEQ": 41.0,
    "LBTESTCD": "AST",
    "LBTEST": "Aspartate Aminotransferase",
    "LBCAT": "CHEMISTRY",
    "LBORRES": "30",
    "LBORRESU": "U/L",
    "LBORNRLO": "11",
    "LBORNRHI": "36",
    "LBSTRESC": "30",
    "LBSTRESN": 30.0,
    "LBSTRESU": "U/L",
    "LBSTNRLO": 11.0,
    "LBSTNRHI": 36.0,
    "LBNRIND": "NORMAL",
    "LBLOBXFL": "",
    "VISITNUM": 4.0,
    "VISIT": "WEEK 2",
    "EPOCH": "TREATMENT",
    "LBDTC": "2013-09-15T12:44",
    "LBDY": 18.0
  },
  {
    "STUDYID": "CDISCPILOT01",
    "DOMAIN": "LB",
    "USUBJID": "CDISC003",
    "LBSEQ": 74.0,
    "LBTESTCD": "ALP",
    "LBTEST": "Alkaline Phosphatase",
    "LBCAT": "CHEMISTRY",
    "LBORRES": "75",
    "LBORRESU": "U/L",
    "LBORNRLO": "35",
    "LBORNRHI": "115",
    "LBSTRESC": "75",
    "LBSTRESN": 75.0,
    "LBSTRESU": "U/L",
    "LBSTNRLO": 35.0,
    "LBSTNRHI": 115.0,
    "LBNRIND": "NORMAL",
    "LBLOBXFL": "",
    "VISITNUM": 5.0,
    "VISIT": "WEEK 4",
    "EPOCH": "TREATMENT",
    "LBDTC": "2013-09-24T08:16",
    "LBDY": 27.0
  },
  {
    "STUDYID": "CDISCPILOT01",
    "DOMAIN": "LB",
    "USUBJID": "CDISC003",
    "LBSEQ": 75.0,
    "LBTESTCD": "ALT",
    "LBTEST": "Alanine Aminotransferase",
    "LBCAT": "CHEMISTRY",
    "LBORRES": "34",
    "LBORRESU": "U/L",
    "LBORNRLO": "6",
    "LBORNRHI": "43",
    "LBSTRESC": "34",
    "LBSTRESN": 34.0,
    "LBSTRESU": "U/L",
    "LBSTNRLO": 6.0,
    "LBSTNRHI": 43.0,
    "LBNRIND": "NORMAL",
    "LBLOBXFL": "",
    "VISITNUM": 5.0,
    "VISIT": "WEEK 4",
    "EPOCH": "TREATMENT",
    "LBDTC": "2013-09-24T08:16",
    "LBDY": 27.0
  },
  {
    "STUDYID": "CDISCPILOT01",
    "DOMAIN": "LB",
    "USUBJID": "CDISC003",
    "LBSEQ": 76.0,
    "LBTESTCD": "AST",
    "LBTEST": "Aspartate Aminotransferase",
    "LBCAT": "CHEMISTRY",
    "LBORRES": "30",
    "LBORRESU": "U/L",
    "LBORNRLO": "11",
    "LBORNRHI": "36",
    "LBSTRESC": "30",
    "LBSTRESN": 30.0,
    "LBSTRESU": "U/L",
    "LBSTNRLO": 11.0,
    "LBSTNRHI": 36.0,
    "LBNRIND": "NORMAL",
    "LBLOBXFL": "",
    "VISITNUM": 5.0,
    "VISIT": "WEEK 4",
    "EPOCH": "TREATMENT",
    "LBDTC": "2013-09-24T08:16",
    "LBDY": 27.0
  },
  {
    "STUDYID": "CDISCPILOT01",
    "DOMAIN": "LB",
    "USUBJID": "CDISC003",
    "LBSEQ": 104.0,
    "LBTESTCD": "ALP",
    "LBTEST": "Alkaline Phosphatase",
    "LBCAT": "CHEMISTRY",
    "LBORRES": "77",
    "LBORRESU": "U/L",
    "LBORNRLO": "35",
    "LBORNRHI": "115",
    "LBSTRESC": "77",
    "LBSTRESN": 77.0,
    "LBSTRESU": "U/L",
    "LBSTNRLO": 35.0,
    "LBSTNRHI": 115.0,
    "LBNRIND": "NORMAL",
    "LBLOBXFL": "",
    "VISITNUM": 7.0,
    "VISIT": "WEEK 6",
    "EPOCH": "TREATMENT",
    "LBDTC": "2013-10-08T15:30",
    "LBDY": 41.0
  },
  {
    "STUDYID": "CDISCPILOT01",
    "DOMAIN": "LB",
    "USUBJID": "CDISC003",
    "LBSEQ": 105.0,
    "LBTESTCD": "ALT",
    "LBTEST": "Alanine Aminotransferase",
    "LBCAT": "CHEMISTRY",
    "LBORRES": "52",
    "LBORRESU": "U/L",
    "LBORNRLO": "6",
    "LBORNRHI": "43",
    "LBSTRESC": "52",
    "LBSTRESN": 52.0,
    "LBSTRESU": "U/L",
    "LBSTNRLO": 6.0,
    "LBSTNRHI": 43.0,
    "LBNRIND": "HIGH",
    "LBLOBXFL": "",
    "VISITNUM": 7.0,
    "VISIT": "WEEK 6",
    "EPOCH": "TREATMENT",
    "LBDTC": "2013-10-08T15:30",
    "LBDY": 41.0
  },
  {
    "STUDYID": "CDISCPILOT01",
    "DOMAIN": "LB",
    "USUBJID": "CDISC003",
    "LBSEQ": 106.0,
    "LBTESTCD": "AST",
    "LBTEST": "Aspartate Aminotransferase",
    "LBCAT": "CHEMISTRY",
    "LBORRES": "73",
    "LBORRESU": "U/L",
    "LBORNRLO": "11",
    "LBORNRHI": "36",
    "LBSTRESC": "73",
    "LBSTRESN": 73.0,
    "LBSTRESU": "U/L",
    "LBSTNRLO": 11.0,
    "LBSTNRHI": 36.0,
    "LBNRIND": "HIGH",
    "LBLOBXFL": "",
    "VISITNUM": 7.0,
    "VISIT": "WEEK 6",
    "EPOCH": "TREATMENT",
    "LBDTC": "2013-10-08T15:30",
    "LBDY": 41.0
  },
  {
    "STUDYID": "CDISCPILOT01",
    "DOMAIN": "LB",
    "USUBJID": "CDISC003",
    "LBSEQ": 134.0,
    "LBTESTCD": "ALP",
    "LBTEST": "Alkaline Phosphatase",
    "LBCAT": "CHEMISTRY",
    "LBORRES": "62",
    "LBORRESU": "U/L",
    "LBORNRLO": "35",
    "LBORNRHI": "115",
    "LBSTRESC": "62",
    "LBSTRESN": 62.0,
    "LBSTRESU": "U/L",
    "LBSTNRLO": 35.0,
    "LBSTNRHI": 115.0,
    "LBNRIND": "NORMAL",
    "LBLOBXFL": "",
    "VISITNUM": 8.0,
    "VISIT": "WEEK 8",
    "EPOCH": "TREATMENT",
    "LBDTC": "2013-10-22T11:54",
    "LBDY": 55.0
  },
  {
    "STUDYID": "CDISCPILOT01",
    "DOMAIN": "LB",
    "USUBJID": "CDISC003",
    "LBSEQ": 135.0,
    "LBTESTCD": "ALT",
    "LBTEST": "Alanine Aminotransferase",
    "LBCAT": "CHEMISTRY",
    "LBORRES": "33",
    "LBORRESU": "U/L",
    "LBORNRLO": "6",
    "LBORNRHI": "43",
    "LBSTRESC": "33",
    "LBSTRESN": 33.0,
    "LBSTRESU": "U/L",
    "LBSTNRLO": 6.0,
    "LBSTNRHI": 43.0,
    "LBNRIND": "NORMAL",
    "LBLOBXFL": "",
    "VISITNUM": 8.0,
    "VISIT": "WEEK 8",
    "EPOCH": "TREATMENT",
    "LBDTC": "2013-10-22T11:54",
    "LBDY": 55.0
  },
  {
    "STUDYID": "CDISCPILOT01",
    "DOMAIN": "LB",
    "USUBJID": "CDISC003",
    "LBSEQ": 136.0,
    "LBTESTCD": "AST",
    "LBTEST": "Aspartate Aminotransferase",
    "LBCAT": "CHEMISTRY",
    "LBORRES": "30",
    "LBORRESU": "U/L",
    "LBORNRLO": "11",
    "LBORNRHI": "36",
    "LBSTRESC": "30",
    "LBSTRESN": 30.0,
    "LBSTRESU": "U/L",
    "LBSTNRLO": 11.0,
    "LBSTNRHI": 36.0,
    "LBNRIND": "NORMAL",
    "LBLOBXFL": "",
    "VISITNUM": 8.0,
    "VISIT": "WEEK 8",
    "EPOCH": "TREATMENT",
    "LBDTC": "2013-10-22T11:54",
    "LBDY": 55.0
  },
  {
    "STUDYID": "CDISCPILOT01",
    "DOMAIN": "LB",
    "USUBJID": "CDISC003",
    "LBSEQ": 164.0,
    "LBTESTCD": "ALP",
    "LBTEST": "Alkaline Phosphatase",
    "LBCAT": "CHEMISTRY",
    "LBORRES": "62",
    "LBORRESU": "U/L",
    "LBORNRLO": "35",
    "LBORNRHI": "115",
    "LBSTRESC": "62",
    "LBSTRESN": 62.0,
    "LBSTRESU": "U/L",
    "LBSTNRLO": 35.0,
    "LBSTNRHI": 115.0,
    "LBNRIND": "NORMAL",
    "LBLOBXFL": "",
    "VISITNUM": 9.0,
    "VISIT": "WEEK 12",
    "EPOCH": "TREATMENT",
    "LBDTC": "2013-11-05T13:54",
    "LBDY": 69.0
  },
  {
    "STUDYID": "CDISCPILOT01",
    "DOMAIN": "LB",
    "USUBJID": "CDISC003",
    "LBSEQ": 165.0,
    "LBTESTCD": "ALT",
    "LBTEST": "Alanine Aminotransferase",
    "LBCAT": "CHEMISTRY",
    "LBORRES": "24",
    "LBORRESU": "U/L",
    "LBORNRLO": "6",
    "LBORNRHI": "43",
    "LBSTRESC": "24",
    "LBSTRESN": 24.0,
    "LBSTRESU": "U/L",
    "LBSTNRLO": 6.0,
    "LBSTNRHI": 43.0,
    "LBNRIND": "NORMAL",
    "LBLOBXFL": "",
    "VISITNUM": 9.0,
    "VISIT": "WEEK 12",
    "EPOCH": "TREATMENT",
    "LBDTC": "2013-11-05T13:54",
    "LBDY": 69.0
  },
  {
    "STUDYID": "CDISCPILOT01",
    "DOMAIN": "LB",
    "USUBJID": "CDISC003",
    "LBSEQ": 166.0,
    "LBTESTCD": "AST",
    "LBTEST": "Aspartate Aminotransferase",
    "LBCAT": "CHEMISTRY",
    "LBORRES": "25",
    "LBORRESU": "U/L",
    "LBORNRLO": "11",
    "LBORNRHI": "36",
    "LBSTRESC": "25",
    "LBSTRESN": 25.0,
    "LBSTRESU": "U/L",
    "LBSTNRLO": 11.0,
    "LBSTNRHI": 36.0,
    "LBNRIND": "NORMAL",
    "LBLOBXFL": "",
    "VISITNUM": 9.0,
    "VISIT": "WEEK 12",
    "EPOCH": "TREATMENT",
    "LBDTC": "2013-11-05T13:54",
    "LBDY": 69.0
  },
  {
    "STUDYID": "CDISCPILOT01",
    "DOMAIN": "LB",
    "USUBJID": "CDISC004",
    "LBSEQ": 2.0,
    "LBTESTCD": "ALP",
    "LBTEST": "Alkaline Phosphatase",
    "LBCAT": "CHEMISTRY",
    "LBORRES": "60",
    "LBORRESU": "U/L",
    "LBORNRLO": "35",
    "LBORNRHI": "115",
    "LBSTRESC": "60",
    "LBSTRESN": 60.0,
    "LBSTRESU": "U/L",
    "LBSTNRLO": 35.0,
    "LBSTNRHI": 115.0,
    "LBNRIND": "NORMAL",
    "LBLOBXFL": "Y",
    "VISITNUM": 1.0,
    "VISIT": "SCREENING 1",
    "EPOCH": "SCREENING",
    "LBDTC": "2013-10-01T12:50",
    "LBDY": -7.0
  },
  {
    "STUDYID": "CDISCPILOT01",
    "DOMAIN": "LB",
    "USUBJID": "CDISC004",
    "LBSEQ": 3.0,
    "LBTESTCD": "ALT",
    "LBTEST": "Alanine Aminotransferase",
    "LBCAT": "CHEMISTRY",
    "LBORRES": "13",
    "LBORRESU": "U/L",
    "LBORNRLO": "6",
    "LBORNRHI": "34",
    "LBSTRESC": "13",
    "LBSTRESN": 13.0,
    "LBSTRESU": "U/L",
    "LBSTNRLO": 6.0,
    "LBSTNRHI": 34.0,
    "LBNRIND": "NORMAL",
    "LBLOBXFL": "Y",
    "VISITNUM": 1.0,
    "VISIT": "SCREENING 1",
    "EPOCH": "SCREENING",
    "LBDTC": "2013-10-01T12:50",
    "LBDY": -7.0
  },
  {
    "STUDYID": "CDISCPILOT01",
    "DOMAIN": "LB",
    "USUBJID": "CDISC004",
    "LBSEQ": 4.0,
    "LBTESTCD": "AST",
    "LBTEST": "Aspartate Aminotransferase",
    "LBCAT": "CHEMISTRY",
    "LBORRES": "22",
    "LBORRESU": "U/L",
    "LBORNRLO": "9",
    "LBORNRHI": "34",
    "LBSTRESC": "22",
    "LBSTRESN": 22.0,
    "LBSTRESU": "U/L",
    "LBSTNRLO": 9.0,
    "LBSTNRHI": 34.0,
    "LBNRIND": "NORMAL",
    "LBLOBXFL": "Y",
    "VISITNUM": 1.0,
    "VISIT": "SCREENING 1",
    "EPOCH": "SCREENING",
    "LBDTC": "2013-10-01T12:50",
    "LBDY": -7.0
  },
  {
    "STUDYID": "CDISCPILOT01",
    "DOMAIN": "LB",
    "USUBJID": "CDISC004",
    "LBSEQ": 39.0,
    "LBTESTCD": "ALP",
    "LBTEST": "Alkaline Phosphatase",
    "LBCAT": "CHEMISTRY",
    "LBORRES": "61",
    "LBORRESU": "U/L",
    "LBORNRLO": "35",
    "LBORNRHI": "115",
    "LBSTRESC": "61",
    "LBSTRESN": 61.0,
    "LBSTRESU": "U/L",
    "LBSTNRLO": 35.0,
    "LBSTNRHI": 115.0,
    "LBNRIND": "NORMAL",
    "LBLOBXFL": "",
    "VISITNUM": 4.0,
    "VISIT": "WEEK 2",
    "EPOCH": "TREATMENT",
    "LBDTC": "2013-10-24T10:41",
    "LBDY": 17.0
  },
  {
    "STUDYID": "CDISCPILOT01",
    "DOMAIN": "LB",
    "USUBJID": "CDISC004",
    "LBSEQ": 40.0,
    "LBTESTCD": "ALT",
    "LBTEST": "Alanine Aminotransferase",
    "LBCAT": "CHEMISTRY",
    "LBORRES": "9",
    "LBORRESU": "U/L",
    "LBORNRLO": "6",
    "LBORNRHI": "34",
    "LBSTRESC": "9",
    "LBSTRESN": 9.0,
    "LBSTRESU": "U/L",
    "LBSTNRLO": 6.0,
    "LBSTNRHI": 34.0,
    "LBNRIND": "NORMAL",
    "LBLOBXFL": "",
    "VISITNUM": 4.0,
    "VISIT": "WEEK 2",
    "EPOCH": "TREATMENT",
    "LBDTC": "2013-10-24T10:41",
    "LBDY": 17.0
  },
  {
    "STUDYID": "CDISCPILOT01",
    "DOMAIN": "LB",
    "USUBJID": "CDISC004",
    "LBSEQ": 41.0,
    "LBTESTCD": "AST",
    "LBTEST": "Aspartate Aminotransferase",
    "LBCAT": "CHEMISTRY",
    "LBORRES": "18",
    "LBORRESU": "U/L",
    "LBORNRLO": "9",
    "LBORNRHI": "34",
    "LBSTRESC": "18",
    "LBSTRESN": 18.0,
    "LBSTRESU": "U/L",
    "LBSTNRLO": 9.0,
    "LBSTNRHI": 34.0,
    "LBNRIND": "NORMAL",
    "LBLOBXFL": "",
    "VISITNUM": 4.0,
    "VISIT": "WEEK 2",
    "EPOCH": "TREATMENT",
    "LBDTC": "2013-10-24T10:41",
    "LBDY": 17.0
  },
  {
    "STUDYID": "CDISCPILOT01",
    "DOMAIN": "LB",
    "USUBJID": "CDISC004",
    "LBSEQ": 74.0,
    "LBTESTCD": "ALP",
    "LBTEST": "Alkaline Phosphatase",
    "LBCAT": "CHEMISTRY",
    "LBORRES": "69",
    "LBORRESU": "U/L",
    "LBORNRLO": "35",
    "LBORNRHI": "115",
    "LBSTRESC": "69",
    "LBSTRESN": 69.0,
    "LBSTRESU": "U/L",
    "LBSTNRLO": 35.0,
    "LBSTNRHI": 115.0,
    "LBNRIND": "NORMAL",
    "LBLOBXFL": "",
    "VISITNUM": 5.0,
    "VISIT": "WEEK 4",
    "EPOCH": "TREATMENT",
    "LBDTC": "2013-11-08T11:32",
    "LBDY": 32.0
  },
  {
    "STUDYID": "CDISCPILOT01",
    "DOMAIN": "LB",
    "USUBJID": "CDISC004",
    "LBSEQ": 75.0,
    "LBTESTCD": "ALT",
    "LBTEST": "Alanine Aminotransferase",
    "LBCAT": "CHEMISTRY",
    "LBORRES": "11",
    "LBORRESU": "U/L",
    "LBORNRLO": "6",
    "LBORNRHI": "34",
    "LBSTRESC": "11",
    "LBSTRESN": 11.0,
    "LBSTRESU": "U/L",
    "LBSTNRLO": 6.0,
    "LBSTNRHI": 34.0,
    "LBNRIND": "NORMAL",
    "LBLOBXFL": "",
    "VISITNUM": 5.0,
    "VISIT": "WEEK 4",
    "EPOCH": "TREATMENT",
    "LBDTC": "2013-11-08T11:32",
    "LBDY": 32.0
  },
  {
    "STUDYID": "CDISCPILOT01",
    "DOMAIN": "LB",
    "USUBJID": "CDISC004",
    "LBSEQ": 76.0,
    "LBTESTCD": "AST",
    "LBTEST": "Aspartate Aminotransferase",
    "LBCAT": "CHEMISTRY",
    "LBORRES": "25",
    "LBORRESU": "U/L",
    "LBORNRLO": "9",
    "LBORNRHI": "34",
    "LBSTRESC": "25",
    "LBSTRESN": 25.0,
    "LBSTRESU": "U/L",
    "LBSTNRLO": 9.0,
    "LBSTNRHI": 34.0,
    "LBNRIND": "NORMAL",
    "LBLOBXFL": "",
    "VISITNUM": 5.0,
    "VISIT": "WEEK 4",
    "EPOCH": "TREATMENT",
    "LBDTC": "2013-11-08T11:32",
    "LBDY": 32.0
  },
  {
    "STUDYID": "CDISCPILOT01",
    "DOMAIN": "LB",
    "USUBJID": "CDISC004",
    "LBSEQ": 104.0,
    "LBTESTCD": "ALP",
    "LBTEST": "Alkaline Phosphatase",
    "LBCAT": "CHEMISTRY",
    "LBORRES": "65",
    "LBORRESU": "U/L",
    "LBORNRLO": "35",
    "LBORNRHI": "115",
    "LBSTRESC": "65",
    "LBSTRESN": 65.0,
    "LBSTRESU": "U/L",
    "LBSTNRLO": 35.0,
    "LBSTNRHI": 115.0,
    "LBNRIND": "NORMAL",
    "LBLOBXFL": "",
    "VISITNUM": 7.0,
    "VISIT": "WEEK 6",
    "EPOCH": "TREATMENT",
    "LBDTC": "2013-11-19T13:22",
    "LBDY": 43.0
  },
  {
    "STUDYID": "CDISCPILOT01",
    "DOMAIN": "LB",
    "USUBJID": "CDISC004",
    "LBSEQ": 105.0,
    "LBTESTCD": "ALT",
    "LBTEST": "Alanine Aminotransferase",
    "LBCAT": "CHEMISTRY",
    "LBORRES": "10",
    "LBORRESU": "U/L",
    "LBORNRLO": "6",
    "LBORNRHI": "34",
    "LBSTRESC": "10",
    "LBSTRESN": 10.0,
    "LBSTRESU": "U/L",
    "LBSTNRLO": 6.0,
    "LBSTNRHI": 34.0,
    "LBNRIND": "NORMAL",
    "LBLOBXFL": "",
    "VISITNUM": 7.0,
    "VISIT": "WEEK 6",
    "EPOCH": "TREATMENT",
    "LBDTC": "2013-11-19T13:22",
    "LBDY": 43.0
  },
  {
    "STUDYID": "CDISCPILOT01",
    "DOMAIN": "LB",
    "USUBJID": "CDISC004",
    "LBSEQ": 106.0,
    "LBTESTCD": "AST",
    "LBTEST": "Aspartate Aminotransferase",
    "LBCAT": "CHEMISTRY",
    "LBORRES": "22",
    "LBORRESU": "U/L",
    "LBORNRLO": "9",
    "LBORNRHI": "34",
    "LBSTRESC": "22",
    "LBSTRESN": 22.0,
    "LBSTRESU": "U/L",
    "LBSTNRLO": 9.0,
    "LBSTNRHI": 34.0,
    "LBNRIND": "NORMAL",
    "LBLOBXFL": "",
    "VISITNUM": 7.0,
    "VISIT": "WEEK 6",
    "EPOCH": "TREATMENT",
    "LBDTC": "2013-11-19T13:22",
    "LBDY": 43.0
  },
  {
    "STUDYID": "CDISCPILOT01",
    "DOMAIN": "LB",
    "USUBJID": "CDISC004",
    "LBSEQ": 134.0,
    "LBTESTCD": "ALP",
    "LBTEST": "Alkaline Phosphatase",
    "LBCAT": "CHEMISTRY",
    "LBORRES": "62",
    "LBORRESU": "U/L",
    "LBORNRLO": "35",
    "LBORNRHI": "115",
    "LBSTRESC": "62",
    "LBSTRESN": 62.0,
    "LBSTRESU": "U/L",
    "LBSTNRLO": 35.0,
    "LBSTNRHI": 115.0,
    "LBNRIND": "NORMAL",
    "LBLOBXFL": "",
    "VISITNUM": 8.0,
    "VISIT": "WEEK 8",
    "EPOCH": "TREATMENT",
    "LBDTC": "2013-12-03T12:27",
    "LBDY": 57.0
  },
  {
    "STUDYID": "CDISCPILOT01",
    "DOMAIN": "LB",
    "USUBJID": "CDISC004",
    "LBSEQ": 135.0,
    "LBTESTCD": "ALT",
    "LBTEST": "Alanine Aminotransferase",
    "LBCAT": "CHEMISTRY",
    "LBORRES": "7",
    "LBORRESU": "U/L",
    "LBORNRLO": "6",
    "LBORNRHI": "34",
    "LBSTRESC": "7",
    "LBSTRESN": 7.0,
    "LBSTRESU": "U/L",
    "LBSTNRLO": 6.0,
    "LBSTNRHI": 34.0,
    "LBNRIND": "NORMAL",
    "LBLOBXFL": "",
    "VISITNUM": 8.0,
    "VISIT": "WEEK 8",
    "EPOCH": "TREATMENT",
    "LBDTC": "2013-12-03T12:27",
    "LBDY": 57.0
  },
  {
    "STUDYID": "CDISCPILOT01",
    "DOMAIN": "LB",
    "USUBJID": "CDISC004",
    "LBSEQ": 136.0,
    "LBTESTCD": "AST",
    "LBTEST": "Aspartate Aminotransferase",
    "LBCAT": "CHEMISTRY",
    "LBORRES": "16",
    "LBORRESU": "U/L",
    "LBORNRLO": "9",
    "LBORNRHI": "34",
    "LBSTRESC": "16",
    "LBSTRESN": 16.0,
    "LBSTRESU": "U/L",
    "LBSTNRLO": 9.0,
    "LBSTNRHI": 34.0,
    "LBNRIND": "NORMAL",
    "LBLOBXFL": "",
    "VISITNUM": 8.0,
    "VISIT": "WEEK 8",
    "EPOCH": "TREATMENT",
    "LBDTC": "2013-12-03T12:27",
    "LBDY": 57.0
  },
  {
    "STUDYID": "CDISCPILOT01",
    "DOMAIN": "LB",
    "USUBJID": "CDISC004",
    "LBSEQ": 164.0,
    "LBTESTCD": "ALP",
    "LBTEST": "Alkaline Phosphatase",
    "LBCAT": "CHEMISTRY",
    "LBORRES": "57",
    "LBORRESU": "U/L",
    "LBORNRLO": "35",
    "LBORNRHI": "115",
    "LBSTRESC": "57",
    "LBSTRESN": 57.0,
    "LBSTRESU": "U/L",
    "LBSTNRLO": 35.0,
    "LBSTNRHI": 115.0,
    "LBNRIND": "NORMAL",
    "LBLOBXFL": "",
    "VISITNUM": 9.0,
    "VISIT": "WEEK 12",
    "EPOCH": "TREATMENT",
    "LBDTC": "2013-12-31T15:07",
    "LBDY": 85.0
  },
  {
    "STUDYID": "CDISCPILOT01",
    "DOMAIN": "LB",
    "USUBJID": "CDISC004",
    "LBSEQ": 165.0,
    "LBTESTCD": "ALT",
    "LBTEST": "Alanine Aminotransferase",
    "LBCAT": "CHEMISTRY",
    "LBORRES": "14",
    "LBORRESU": "U/L",
    "LBORNRLO": "6",
    "LBORNRHI": "34",
    "LBSTRESC": "14",
    "LBSTRESN": 14.0,
    "LBSTRESU": "U/L",
    "LBSTNRLO": 6.0,
    "LBSTNRHI": 34.0,
    "LBNRIND": "NORMAL",
    "LBLOBXFL": "",
    "VISITNUM": 9.0,
    "VISIT": "WEEK 12",
    "EPOCH": "TREATMENT",
    "LBDTC": "2013-12-31T15:07",
    "LBDY": 85.0
  },
  {
    "STUDYID": "CDISCPILOT01",
    "DOMAIN": "LB",
    "USUBJID": "CDISC004",
    "LBSEQ": 166.0,
    "LBTESTCD": "AST",
    "LBTEST": "Aspartate Aminotransferase",
    "LBCAT": "CHEMISTRY",
    "LBORRES": "22",
    "LBORRESU": "U/L",
    "LBORNRLO": "9",
    "LBORNRHI": "34",
    "LBSTRESC": "22",
    "LBSTRESN": 22.0,
    "LBSTRESU": "U/L",
    "LBSTNRLO": 9.0,
    "LBSTNRHI": 34.0,
    "LBNRIND": "NORMAL",
    "LBLOBXFL": "",
    "VISITNUM": 9.0,
    "VISIT": "WEEK 12",
    "EPOCH": "TREATMENT",
    "LBDTC": "2013-12-31T15:07",
    "LBDY": 85.0
  },
  {
    "STUDYID": "CDISCPILOT01",
    "DOMAIN": "LB",
    "USUBJID": "CDISC004",
    "LBSEQ": 199.0,
    "LBTESTCD": "ALP",
    "LBTEST": "Alkaline Phosphatase",
    "LBCAT": "CHEMISTRY",
    "LBORRES": "59",
    "LBORRESU": "U/L",
    "LBORNRLO": "35",
    "LBORNRHI": "115",
    "LBSTRESC": "59",
    "LBSTRESN": 59.0,
    "LBSTRESU": "U/L",
    "LBSTNRLO": 35.0,
    "LBSTNRHI": 115.0,
    "LBNRIND": "NORMAL",
    "LBLOBXFL": "",
    "VISITNUM": 10.0,
    "VISIT": "WEEK 16",
    "EPOCH": "TREATMENT",
    "LBDTC": "2014-01-27T11:49",
    "LBDY": 112.0
  },
  {
    "STUDYID": "CDISCPILOT01",
    "DOMAIN": "LB",
    "USUBJID": "CDISC004",
    "LBSEQ": 200.0,
    "LBTESTCD": "ALT",
    "LBTEST": "Alanine Aminotransferase",
    "LBCAT": "CHEMISTRY",
    "LBORRES": "13",
    "LBORRESU": "U/L",
    "LBORNRLO": "6",
    "LBORNRHI": "34",
    "LBSTRESC": "13",
    "LBSTRESN": 13.0,
    "LBSTRESU": "U/L",
    "LBSTNRLO": 6.0,
    "LBSTNRHI": 34.0,
    "LBNRIND": "NORMAL",
    "LBLOBXFL": "",
    "VISITNUM": 10.0,
    "VISIT": "WEEK 16",
    "EPOCH": "TREATMENT",
    "LBDTC": "2014-01-27T11:49",
    "LBDY": 112.0
  },
  {
    "STUDYID": "CDISCPILOT01",
    "DOMAIN": "LB",
    "USUBJID": "CDISC004",
    "LBSEQ": 201.0,
    "LBTESTCD": "AST",
    "LBTEST": "Aspartate Aminotransferase",
    "LBCAT": "CHEMISTRY",
    "LBORRES": "24",
    "LBORRESU": "U/L",
    "LBORNRLO": "9",
    "LBORNRHI": "34",
    "LBSTRESC": "24",
    "LBSTRESN": 24.0,
    "LBSTRESU": "U/L",
    "LBSTNRLO": 9.0,
    "LBSTNRHI": 34.0,
    "LBNRIND": "NORMAL",
    "LBLOBXFL": "",
    "VISITNUM": 10.0,
    "VISIT": "WEEK 16",
    "EPOCH": "TREATMENT",
    "LBDTC": "2014-01-27T11:49",
    "LBDY": 112.0
  },
  {
    "STUDYID": "CDISCPILOT01",
    "DOMAIN": "LB",
    "USUBJID": "CDISC004",
    "LBSEQ": 229.0,
    "LBTESTCD": "ALP",
    "LBTEST": "Alkaline Phosphatase",
    "LBCAT": "CHEMISTRY",
    "LBORRES": "56",
    "LBORRESU": "U/L",
    "LBORNRLO": "35",
    "LBORNRHI": "115",
    "LBSTRESC": "56",
    "LBSTRESN": 56.0,
    "LBSTRESU": "U/L",
    "LBSTNRLO": 35.0,
    "LBSTNRHI": 115.0,
    "LBNRIND": "NORMAL",
    "LBLOBXFL": "",
    "VISITNUM": 11.0,
    "VISIT": "WEEK 20",
    "EPOCH": "TREATMENT",
    "LBDTC": "2014-02-25T08:44",
    "LBDY": 141.0
  },
  {
    "STUDYID": "CDISCPILOT01",
    "DOMAIN": "LB",
    "USUBJID": "CDISC004",
    "LBSEQ": 230.0,
    "LBTESTCD": "ALT",
    "LBTEST": "Alanine Aminotransferase",
    "LBCAT": "CHEMISTRY",
    "LBORRES": "13",
    "LBORRESU": "U/L",
    "LBORNRLO": "6",
    "LBORNRHI": "34",
    "LBSTRESC": "13",
    "LBSTRESN": 13.0,
    "LBSTRESU": "U/L",
    "LBSTNRLO": 6.0,
    "LBSTNRHI": 34.0,
    "LBNRIND": "NORMAL",
    "LBLOBXFL": "",
    "VISITNUM": 11.0,
    "VISIT": "WEEK 20",
    "EPOCH": "TREATMENT",
    "LBDTC": "2014-02-25T08:44",
    "LBDY": 141.0
  },
  {
    "STUDYID": "CDISCPILOT01",
    "DOMAIN": "LB",
    "USUBJID": "CDISC004",
    "LBSEQ": 231.0,
    "LBTESTCD": "AST",
    "LBTEST": "Aspartate Aminotransferase",
    "LBCAT": "CHEMISTRY",
    "LBORRES": "22",
    "LBORRESU": "U/L",
    "LBORNRLO": "9",
    "LBORNRHI": "34",
    "LBSTRESC": "22",
    "LBSTRESN": 22.0,
    "LBSTRESU": "U/L",
    "LBSTNRLO": 9.0,
    "LBSTNRHI": 34.0,
    "LBNRIND": "NORMAL",
    "LBLOBXFL": "",
    "VISITNUM": 11.0,
    "VISIT": "WEEK 20",
    "EPOCH": "TREATMENT",
    "LBDTC": "2014-02-25T08:44",
    "LBDY": 141.0
  },
  {
    "STUDYID": "CDISCPILOT01",
    "DOMAIN": "LB",
    "USUBJID": "CDISC004",
    "LBSEQ": 259.0,
    "LBTESTCD": "ALP",
    "LBTEST": "Alkaline Phosphatase",
    "LBCAT": "CHEMISTRY",
    "LBORRES": "58",
    "LBORRESU": "U/L",
    "LBORNRLO": "35",
    "LBORNRHI": "115",
    "LBSTRESC": "58",
    "LBSTRESN": 58.0,
    "LBSTRESU": "U/L",
    "LBSTNRLO": 35.0,
    "LBSTNRHI": 115.0,
    "LBNRIND": "NORMAL",
    "LBLOBXFL": "",
    "VISITNUM": 12.0,
    "VISIT": "WEEK 24",
    "EPOCH": "TREATMENT",
    "LBDTC": "2014-03-18T14:12",
    "LBDY": 162.0
  },
  {
    "STUDYID": "CDISCPILOT01",
    "DOMAIN": "LB",
    "USUBJID": "CDISC004",
    "LBSEQ": 260.0,
    "LBTESTCD": "ALT",
    "LBTEST": "Alanine Aminotransferase",
    "LBCAT": "CHEMISTRY",
    "LBORRES": "25",
    "LBORRESU": "U/L",
    "LBORNRLO": "6",
    "LBORNRHI": "34",
    "LBSTRESC": "25",
    "LBSTRESN": 25.0,
    "LBSTRESU": "U/L",
    "LBSTNRLO": 6.0,
    "LBSTNRHI": 34.0,
    "LBNRIND": "NORMAL",
    "LBLOBXFL": "",
    "VISITNUM": 12.0,
    "VISIT": "WEEK 24",
    "EPOCH": "TREATMENT",
    "LBDTC": "2014-03-18T14:12",
    "LBDY": 162.0
  },
  {
    "STUDYID": "CDISCPILOT01",
    "DOMAIN": "LB",
    "USUBJID": "CDISC004",
    "LBSEQ": 261.0,
    "LBTESTCD": "AST",
    "LBTEST": "Aspartate Aminotransferase",
    "LBCAT": "CHEMISTRY",
    "LBORRES": "46",
    "LBORRESU": "U/L",
    "LBORNRLO": "9",
    "LBORNRHI": "34",
    "LBSTRESC": "46",
    "LBSTRESN": 46.0,
    "LBSTRESU": "U/L",
    "LBSTNRLO": 9.0,
    "LBSTNRHI": 34.0,
    "LBNRIND": "HIGH",
    "LBLOBXFL": "",
    "VISITNUM": 12.0,
    "VISIT": "WEEK 24",
    "EPOCH": "TREATMENT",
    "LBDTC": "2014-03-18T14:12",
    "LBDY": 162.0
  },
  {
    "STUDYID": "CDISCPILOT01",
    "DOMAIN": "LB",
    "USUBJID": "CDISC005",
    "LBSEQ": 2.0,
    "LBTESTCD": "ALP",
    "LBTEST": "Alkaline Phosphatase",
    "LBCAT": "CHEMISTRY",
    "LBORRES": "66",
    "LBORRESU": "U/L",
    "LBORNRLO": "35",
    "LBORNRHI": "115",
    "LBSTRESC": "66",
    "LBSTRESN": 66.0,
    "LBSTRESU": "U/L",
    "LBSTNRLO": 35.0,
    "LBSTNRHI": 115.0,
    "LBNRIND": "NORMAL",
    "LBLOBXFL": "Y",
    "VISITNUM": 1.0,
    "VISIT": "SCREENING 1",
    "EPOCH": "SCREENING",
    "LBDTC": "2013-01-22T11:43",
    "LBDY": -13.0
  },
  {
    "STUDYID": "CDISCPILOT01",
    "DOMAIN": "LB",
    "USUBJID": "CDISC005",
    "LBSEQ": 3.0,
    "LBTESTCD": "ALT",
    "LBTEST": "Alanine Aminotransferase",
    "LBCAT": "CHEMISTRY",
    "LBORRES": "17",
    "LBORRESU": "U/L",
    "LBORNRLO": "6",
    "LBORNRHI": "32",
    "LBSTRESC": "17",
    "LBSTRESN": 17.0,
    "LBSTRESU": "U/L",
    "LBSTNRLO": 6.0,
    "LBSTNRHI": 32.0,
    "LBNRIND": "NORMAL",
    "LBLOBXFL": "Y",
    "VISITNUM": 1.0,
    "VISIT": "SCREENING 1",
    "EPOCH": "SCREENING",
    "LBDTC": "2013-01-22T11:43",
    "LBDY": -13.0
  },
  {
    "STUDYID": "CDISCPILOT01",
    "DOMAIN": "LB",
    "USUBJID": "CDISC005",
    "LBSEQ": 4.0,
    "LBTESTCD": "AST",
    "LBTEST": "Aspartate Aminotransferase",
    "LBCAT": "CHEMISTRY",
    "LBORRES": "20",
    "LBORRESU": "U/L",
    "LBORNRLO": "9",
    "LBORNRHI": "34",
    "LBSTRESC": "20",
    "LBSTRESN": 20.0,
    "LBSTRESU": "U/L",
    "LBSTNRLO": 9.0,
    "LBSTNRHI": 34.0,
    "LBNRIND": "NORMAL",
    "LBLOBXFL": "Y",
    "VISITNUM": 1.0,
    "VISIT": "SCREENING 1",
    "EPOCH": "SCREENING",
    "LBDTC": "2013-01-22T11:43",
    "LBDY": -13.0
  },
  {
    "STUDYID": "CDISCPILOT01",
    "DOMAIN": "LB",
    "USUBJID": "CDISC005",
    "LBSEQ": 39.0,
    "LBTESTCD": "ALP",
    "LBTEST": "Alkaline Phosphatase",
    "LBCAT": "CHEMISTRY",
    "LBORRES": "66",
    "LBORRESU": "U/L",
    "LBORNRLO": "35",
    "LBORNRHI": "115",
    "LBSTRESC": "66",
    "LBSTRESN": 66.0,
    "LBSTRESU": "U/L",
    "LBSTNRLO": 35.0,
    "LBSTNRHI": 115.0,
    "LBNRIND": "NORMAL",
    "LBLOBXFL": "",
    "VISITNUM": 4.0,
    "VISIT": "WEEK 2",
    "EPOCH": "TREATMENT",
    "LBDTC": "2013-02-19T09:40",
    "LBDY": 16.0
  },
  {
    "STUDYID": "CDISCPILOT01",
    "DOMAIN": "LB",
    "USUBJID": "CDISC005",
    "LBSEQ": 40.0,
    "LBTESTCD": "ALT",
    "LBTEST": "Alanine Aminotransferase",
    "LBCAT": "CHEMISTRY",
    "LBORRES": "17",
    "LBORRESU": "U/L",
    "LBORNRLO": "6",
    "LBORNRHI": "32",
    "LBSTRESC": "17",
    "LBSTRESN": 17.0,
    "LBSTRESU": "U/L",
    "LBSTNRLO": 6.0,
    "LBSTNRHI": 32.0,
    "LBNRIND": "NORMAL",
    "LBLOBXFL": "",
    "VISITNUM": 4.0,
    "VISIT": "WEEK 2",
    "EPOCH": "TREATMENT",
    "LBDTC": "2013-02-19T09:40",
    "LBDY": 16.0
  },
  {
    "STUDYID": "CDISCPILOT01",
    "DOMAIN": "LB",
    "USUBJID": "CDISC005",
    "LBSEQ": 41.0,
    "LBTESTCD": "AST",
    "LBTEST": "Aspartate Aminotransferase",
    "LBCAT": "CHEMISTRY",
    "LBORRES": "20",
    "LBORRESU": "U/L",
    "LBORNRLO": "9",
    "LBORNRHI": "34",
    "LBSTRESC": "20",
    "LBSTRESN": 20.0,
    "LBSTRESU": "U/L",
    "LBSTNRLO": 9.0,
    "LBSTNRHI": 34.0,
    "LBNRIND": "NORMAL",
    "LBLOBXFL": "",
    "VISITNUM": 4.0,
    "VISIT": "WEEK 2",
    "EPOCH": "TREATMENT",
    "LBDTC": "2013-02-19T09:40",
    "LBDY": 16.0
  },
  {
    "STUDYID": "CDISCPILOT01",
    "DOMAIN": "LB",
    "USUBJID": "CDISC005",
    "LBSEQ": 74.0,
    "LBTESTCD": "ALP",
    "LBTEST": "Alkaline Phosphatase",
    "LBCAT": "CHEMISTRY",
    "LBORRES": "61",
    "LBORRESU": "U/L",
    "LBORNRLO": "35",
    "LBORNRHI": "115",
    "LBSTRESC": "61",
    "LBSTRESN": 61.0,
    "LBSTRESU": "U/L",
    "LBSTNRLO": 35.0,
    "LBSTNRHI": 115.0,
    "LBNRIND": "NORMAL",
    "LBLOBXFL": "",
    "VISITNUM": 5.0,
    "VISIT": "WEEK 4",
    "EPOCH": "TREATMENT",
    "LBDTC": "2013-03-12T11:50",
    "LBDY": 37.0
  },
  {
    "STUDYID": "CDISCPILOT01",
    "DOMAIN": "LB",
    "USUBJID": "CDISC005",
    "LBSEQ": 75.0,
    "LBTESTCD": "ALT",
    "LBTEST": "Alanine Aminotransferase",
    "LBCAT": "CHEMISTRY",
    "LBORRES": "14",
    "LBORRESU": "U/L",
    "LBORNRLO": "6",
    "LBORNRHI": "32",
    "LBSTRESC": "14",
    "LBSTRESN": 14.0,
    "LBSTRESU": "U/L",
    "LBSTNRLO": 6.0,
    "LBSTNRHI": 32.0,
    "LBNRIND": "NORMAL",
    "LBLOBXFL": "",
    "VISITNUM": 5.0,
    "VISIT": "WEEK 4",
    "EPOCH": "TREATMENT",
    "LBDTC": "2013-03-12T11:50",
    "LBDY": 37.0
  },
  {
    "STUDYID": "CDISCPILOT01",
    "DOMAIN": "LB",
    "USUBJID": "CDISC005",
    "LBSEQ": 76.0,
    "LBTESTCD": "AST",
    "LBTEST": "Aspartate Aminotransferase",
    "LBCAT": "CHEMISTRY",
    "LBORRES": "20",
    "LBORRESU": "U/L",
    "LBORNRLO": "9",
    "LBORNRHI": "34",
    "LBSTRESC": "20",
    "LBSTRESN": 20.0,
    "LBSTRESU": "U/L",
    "LBSTNRLO": 9.0,
    "LBSTNRHI": 34.0,
    "LBNRIND": "NORMAL",
    "LBLOBXFL": "",
    "VISITNUM": 5.0,
    "VISIT": "WEEK 4",
    "EPOCH": "TREATMENT",
    "LBDTC": "2013-03-12T11:50",
    "LBDY": 37.0
  },
  {
    "STUDYID": "CDISCPILOT01",
    "DOMAIN": "LB",
    "USUBJID": "CDISC005",
    "LBSEQ": 104.0,
    "LBTESTCD": "ALP",
    "LBTEST": "Alkaline Phosphatase",
    "LBCAT": "CHEMISTRY",
    "LBORRES": "63",
    "LBORRESU": "U/L",
    "LBORNRLO": "35",
    "LBORNRHI": "115",
    "LBSTRESC": "63",
    "LBSTRESN": 63.0,
    "LBSTRESU": "U/L",
    "LBSTNRLO": 35.0,
    "LBSTNRHI": 115.0,
    "LBNRIND": "NORMAL",
    "LBLOBXFL": "",
    "VISITNUM": 7.0,
    "VISIT": "WEEK 6",
    "EPOCH": "TREATMENT",
    "LBDTC": "2013-03-19T08:57",
    "LBDY": 44.0
  },
  {
    "STUDYID": "CDISCPILOT01",
    "DOMAIN": "LB",
    "USUBJID": "CDISC005",
    "LBSEQ": 105.0,
    "LBTESTCD": "ALT",
    "LBTEST": "Alanine Aminotransferase",
    "LBCAT": "CHEMISTRY",
    "LBORRES": "17",
    "LBORRESU": "U/L",
    "LBORNRLO": "6",
    "LBORNRHI": "32",
    "LBSTRESC": "17",
    "LBSTRESN": 17.0,
    "LBSTRESU": "U/L",
    "LBSTNRLO": 6.0,
    "LBSTNRHI": 32.0,
    "LBNRIND": "NORMAL",
    "LBLOBXFL": "",
    "VISITNUM": 7.0,
    "VISIT": "WEEK 6",
    "EPOCH": "TREATMENT",
    "LBDTC": "2013-03-19T08:57",
    "LBDY": 44.0
  },
  {
    "STUDYID": "CDISCPILOT01",
    "DOMAIN": "LB",
    "USUBJID": "CDISC005",
    "LBSEQ": 106.0,
    "LBTESTCD": "AST",
    "LBTEST": "Aspartate Aminotransferase",
    "LBCAT": "CHEMISTRY",
    "LBORRES": "23",
    "LBORRESU": "U/L",
    "LBORNRLO": "9",
    "LBORNRHI": "34",
    "LBSTRESC": "23",
    "LBSTRESN": 23.0,
    "LBSTRESU": "U/L",
    "LBSTNRLO": 9.0,
    "LBSTNRHI": 34.0,
    "LBNRIND": "NORMAL",
    "LBLOBXFL": "",
    "VISITNUM": 7.0,
    "VISIT": "WEEK 6",
    "EPOCH": "TREATMENT",
    "LBDTC": "2013-03-19T08:57",
    "LBDY": 44.0
  },
  {
    "STUDYID": "CDISCPILOT01",
    "DOMAIN": "LB",
    "USUBJID": "CDISC005",
    "LBSEQ": 134.0,
    "LBTESTCD": "ALP",
    "LBTEST": "Alkaline Phosphatase",
    "LBCAT": "CHEMISTRY",
    "LBORRES": "56",
    "LBORRESU": "U/L",
    "LBORNRLO": "35",
    "LBORNRHI": "115",
    "LBSTRESC": "56",
    "LBSTRESN": 56.0,
    "LBSTRESU": "U/L",
    "LBSTNRLO": 35.0,
    "LBSTNRHI": 115.0,
    "LBNRIND": "NORMAL",
    "LBLOBXFL": "",
    "VISITNUM": 8.0,
    "VISIT": "WEEK 8",
    "EPOCH": "TREATMENT",
    "LBDTC": "2013-04-02T10:32",
    "LBDY": 58.0
  },
  {
    "STUDYID": "CDISCPILOT01",
    "DOMAIN": "LB",
    "USUBJID": "CDISC005",
    "LBSEQ": 135.0,
    "LBTESTCD": "ALT",
    "LBTEST": "Alanine Aminotransferase",
    "LBCAT": "CHEMISTRY",
    "LBORRES": "18",
    "LBORRESU": "U/L",
    "LBORNRLO": "6",
    "LBORNRHI": "32",
    "LBSTRESC": "18",
    "LBSTRESN": 18.0,
    "LBSTRESU": "U/L",
    "LBSTNRLO": 6.0,
    "LBSTNRHI": 32.0,
    "LBNRIND": "NORMAL",
    "LBLOBXFL": "",
    "VISITNUM": 8.0,
    "VISIT": "WEEK 8",
    "EPOCH": "TREATMENT",
    "LBDTC": "2013-04-02T10:32",
    "LBDY": 58.0
  },
  {
    "STUDYID": "CDISCPILOT01",
    "DOMAIN": "LB",
    "USUBJID": "CDISC005",
    "LBSEQ": 136.0,
    "LBTESTCD": "AST",
    "LBTEST": "Aspartate Aminotransferase",
    "LBCAT": "CHEMISTRY",
    "LBORRES": "25",
    "LBORRESU": "U/L",
    "LBORNRLO": "9",
    "LBORNRHI": "34",
    "LBSTRESC": "25",
    "LBSTRESN": 25.0,
    "LBSTRESU": "U/L",
    "LBSTNRLO": 9.0,
    "LBSTNRHI": 34.0,
    "LBNRIND": "NORMAL",
    "LBLOBXFL": "",
    "VISITNUM": 8.0,
    "VISIT": "WEEK 8",
    "EPOCH": "TREATMENT",
    "LBDTC": "2013-04-02T10:32",
    "LBDY": 58.0
  },
  {
    "STUDYID": "CDISCPILOT01",
    "DOMAIN": "LB",
    "USUBJID": "CDISC005",
    "LBSEQ": 164.0,
    "LBTESTCD": "ALP",
    "LBTEST": "Alkaline Phosphatase",
    "LBCAT": "CHEMISTRY",
    "LBORRES": "57",
    "LBORRESU": "U/L",
    "LBORNRLO": "35",
    "LBORNRHI": "115",
    "LBSTRESC": "57",
    "LBSTRESN": 57.0,
    "LBSTRESU": "U/L",
    "LBSTNRLO": 35.0,
    "LBSTNRHI": 115.0,
    "LBNRIND": "NORMAL",
    "LBLOBXFL": "",
    "VISITNUM": 9.0,
    "VISIT": "WEEK 12",
    "EPOCH": "TREATMENT",
    "LBDTC": "2013-04-30T13:14",
    "LBDY": 86.0
  },
  {
    "STUDYID": "CDISCPILOT01",
    "DOMAIN": "LB",
    "USUBJID": "CDISC005",
    "LBSEQ": 165.0,
    "LBTESTCD": "ALT",
    "LBTEST": "Alanine Aminotransferase",
    "LBCAT": "CHEMISTRY",
    "LBORRES": "13",
    "LBORRESU": "U/L",
    "LBORNRLO": "6",
    "LBORNRHI": "32",
    "LBSTRESC": "13",
    "LBSTRESN": 13.0,
    "LBSTRESU": "U/L",
    "LBSTNRLO": 6.0,
    "LBSTNRHI": 32.0,
    "LBNRIND": "NORMAL",
    "LBLOBXFL": "",
    "VISITNUM": 9.0,
    "VISIT": "WEEK 12",
    "EPOCH": "TREATMENT",
    "LBDTC": "2013-04-30T13:14",
    "LBDY": 86.0
  },
  {
    "STUDYID": "CDISCPILOT01",
    "DOMAIN": "LB",
    "USUBJID": "CDISC005",
    "LBSEQ": 166.0,
    "LBTESTCD": "AST",
    "LBTEST": "Aspartate Aminotransferase",
    "LBCAT": "CHEMISTRY",
    "LBORRES": "20",
    "LBORRESU": "U/L",
    "LBORNRLO": "9",
    "LBORNRHI": "34",
    "LBSTRESC": "20",
    "LBSTRESN": 20.0,
    "LBSTRESU": "U/L",
    "LBSTNRLO": 9.0,
    "LBSTNRHI": 34.0,
    "LBNRIND": "NORMAL",
    "LBLOBXFL": "",
    "VISITNUM": 9.0,
    "VISIT": "WEEK 12",
    "EPOCH": "TREATMENT",
    "LBDTC": "2013-04-30T13:14",
    "LBDY": 86.0
  },
  {
    "STUDYID": "CDISCPILOT01",
    "DOMAIN": "LB",
    "USUBJID": "CDISC005",
    "LBSEQ": 199.0,
    "LBTESTCD": "ALP",
    "LBTEST": "Alkaline Phosphatase",
    "LBCAT": "CHEMISTRY",
    "LBORRES": "60",
    "LBORRESU": "U/L",
    "LBORNRLO": "35",
    "LBORNRHI": "115",
    "LBSTRESC": "60",
    "LBSTRESN": 60.0,
    "LBSTRESU": "U/L",
    "LBSTNRLO": 35.0,
    "LBSTNRHI": 115.0,
    "LBNRIND": "NORMAL",
    "LBLOBXFL": "",
    "VISITNUM": 10.0,
    "VISIT": "WEEK 16",
    "EPOCH": "TREATMENT",
    "LBDTC": "2013-05-30T10:33",
    "LBDY": 116.0
  },
  {
    "STUDYID": "CDISCPILOT01",
    "DOMAIN": "LB",
    "USUBJID": "CDISC005",
    "LBSEQ": 200.0,
    "LBTESTCD": "ALT",
    "LBTEST": "Alanine Aminotransferase",
    "LBCAT": "CHEMISTRY",
    "LBORRES": "19",
    "LBORRESU": "U/L",
    "LBORNRLO": "6",
    "LBORNRHI": "32",
    "LBSTRESC": "19",
    "LBSTRESN": 19.0,
    "LBSTRESU": "U/L",
    "LBSTNRLO": 6.0,
    "LBSTNRHI": 32.0,
    "LBNRIND": "NORMAL",
    "LBLOBXFL": "",
    "VISITNUM": 10.0,
    "VISIT": "WEEK 16",
    "EPOCH": "TREATMENT",
    "LBDTC": "2013-05-30T10:33",
    "LBDY": 116.0
  },
  {
    "STUDYID": "CDISCPILOT01",
    "DOMAIN": "LB",
    "USUBJID": "CDISC005",
    "LBSEQ": 201.0,
    "LBTESTCD": "AST",
    "LBTEST": "Aspartate Aminotransferase",
    "LBCAT": "CHEMISTRY",
    "LBORRES": "25",
    "LBORRESU": "U/L",
    "LBORNRLO": "9",
    "LBORNRHI": "34",
    "LBSTRESC": "25",
    "LBSTRESN": 25.0,
    "LBSTRESU": "U/L",
    "LBSTNRLO": 9.0,
    "LBSTNRHI": 34.0,
    "LBNRIND": "NORMAL",
    "LBLOBXFL": "",
    "VISITNUM": 10.0,
    "VISIT": "WEEK 16",
    "EPOCH": "TREATMENT",
    "LBDTC": "2013-05-30T10:33",
    "LBDY": 116.0
  },
  {
    "STUDYID": "CDISCPILOT01",
    "DOMAIN": "LB",
    "USUBJID": "CDISC005",
    "LBSEQ": 229.0,
    "LBTESTCD": "ALP",
    "LBTEST": "Alkaline Phosphatase",
    "LBCAT": "CHEMISTRY",
    "LBORRES": "64",
    "LBORRESU": "U/L",
    "LBORNRLO": "35",
    "LBORNRHI": "115",
    "LBSTRESC": "64",
    "LBSTRESN": 64.0,
    "LBSTRESU": "U/L",
    "LBSTNRLO": 35.0,
    "LBSTNRHI": 115.0,
    "LBNRIND": "NORMAL",
    "LBLOBXFL": "",
    "VISITNUM": 11.0,
    "VISIT": "WEEK 20",
    "EPOCH": "TREATMENT",
    "LBDTC": "2013-06-25T15:07",
    "LBDY": 142.0
  },
  {
    "STUDYID": "CDISCPILOT01",
    "DOMAIN": "LB",
    "USUBJID": "CDISC005",
    "LBSEQ": 230.0,
    "LBTESTCD": "ALT",
    "LBTEST": "Alanine Aminotransferase",
    "LBCAT": "CHEMISTRY",
    "LBORRES": "19",
    "LBORRESU": "U/L",
    "LBORNRLO": "6",
    "LBORNRHI": "32",
    "LBSTRESC": "19",
    "LBSTRESN": 19.0,
    "LBSTRESU": "U/L",
    "LBSTNRLO": 6.0,
    "LBSTNRHI": 32.0,
    "LBNRIND": "NORMAL",
    "LBLOBXFL": "",
    "VISITNUM": 11.0,
    "VISIT": "WEEK 20",
    "EPOCH": "TREATMENT",
    "LBDTC": "2013-06-25T15:07",
    "LBDY": 142.0
  },
  {
    "STUDYID": "CDISCPILOT01",
    "DOMAIN": "LB",
    "USUBJID": "CDISC005",
    "LBSEQ": 231.0,
    "LBTESTCD": "AST",
    "LBTEST": "Aspartate Aminotransferase",
    "LBCAT": "CHEMISTRY",
    "LBORRES": "21",
    "LBORRESU": "U/L",
    "LBORNRLO": "9",
    "LBORNRHI": "34",
    "LBSTRESC": "21",
    "LBSTRESN": 21.0,
    "LBSTRESU": "U/L",
    "LBSTNRLO": 9.0,
    "LBSTNRHI": 34.0,
    "LBNRIND": "NORMAL",
    "LBLOBXFL": "",
    "VISITNUM": 11.0,
    "VISIT": "WEEK 20",
    "EPOCH": "TREATMENT",
    "LBDTC": "2013-06-25T15:07",
    "LBDY": 142.0
  },
  {
    "STUDYID": "CDISCPILOT01",
    "DOMAIN": "LB",
    "USUBJID": "CDISC005",
    "LBSEQ": 259.0,
    "LBTESTCD": "ALP",
    "LBTEST": "Alkaline Phosphatase",
    "LBCAT": "CHEMISTRY",
    "LBORRES": "58",
    "LBORRESU": "U/L",
    "LBORNRLO": "35",
    "LBORNRHI": "115",
    "LBSTRESC": "58",
    "LBSTRESN": 58.0,
    "LBSTRESU": "U/L",
    "LBSTNRLO": 35.0,
    "LBSTNRHI": 115.0,
    "LBNRIND": "NORMAL",
    "LBLOBXFL": "",
    "VISITNUM": 12.0,
    "VISIT": "WEEK 24",
    "EPOCH": "TREATMENT",
    "LBDTC": "2013-07-30T12:32",
    "LBDY": 177.0
  },
  {
    "STUDYID": "CDISCPILOT01",
    "DOMAIN": "LB",
    "USUBJID": "CDISC005",
    "LBSEQ": 260.0,
    "LBTESTCD": "ALT",
    "LBTEST": "Alanine Aminotransferase",
    "LBCAT": "CHEMISTRY",
    "LBORRES": "15",
    "LBORRESU": "U/L",
    "LBORNRLO": "6",
    "LBORNRHI": "32",
    "LBSTRESC": "15",
    "LBSTRESN": 15.0,
    "LBSTRESU": "U/L",
    "LBSTNRLO": 6.0,
    "LBSTNRHI": 32.0,
    "LBNRIND": "NORMAL",
    "LBLOBXFL": "",
    "VISITNUM": 12.0,
    "VISIT": "WEEK 24",
    "EPOCH": "TREATMENT",
    "LBDTC": "2013-07-30T12:32",
    "LBDY": 177.0
  },
  {
    "STUDYID": "CDISCPILOT01",
    "DOMAIN": "LB",
    "USUBJID": "CDISC005",
    "LBSEQ": 261.0,
    "LBTESTCD": "AST",
    "LBTEST": "Aspartate Aminotransferase",
    "LBCAT": "CHEMISTRY",
    "LBORRES": "20",
    "LBORRESU": "U/L",
    "LBORNRLO": "9",
    "LBORNRHI": "34",
    "LBSTRESC": "20",
    "LBSTRESN": 20.0,
    "LBSTRESU": "U/L",
    "LBSTNRLO": 9.0,
    "LBSTNRHI": 34.0,
    "LBNRIND": "NORMAL",
    "LBLOBXFL": "",
    "VISITNUM": 12.0,
    "VISIT": "WEEK 24",
    "EPOCH": "TREATMENT",
    "LBDTC": "2013-07-30T12:32",
    "LBDY": 177.0
  },
  {
    "STUDYID": "CDISCPILOT01",
    "DOMAIN": "LB",
    "USUBJID": "CDISC005",
    "LBSEQ": 294.0,
    "LBTESTCD": "ALP",
    "LBTEST": "Alkaline Phosphatase",
    "LBCAT": "CHEMISTRY",
    "LBORRES": "53",
    "LBORRESU": "U/L",
    "LBORNRLO": "35",
    "LBORNRHI": "115",
    "LBSTRESC": "53",
    "LBSTRESN": 53.0,
    "LBSTRESU": "U/L",
    "LBSTNRLO": 35.0,
    "LBSTNRHI": 115.0,
    "LBNRIND": "NORMAL",
    "LBLOBXFL": "",
    "VISITNUM": 13.0,
    "VISIT": "WEEK 26",
    "EPOCH": "TREATMENT",
    "LBDTC": "2013-08-06T12:00",
    "LBDY": 184.0
  },
  {
    "STUDYID": "CDISCPILOT01",
    "DOMAIN": "LB",
    "USUBJID": "CDISC005",
    "LBSEQ": 295.0,
    "LBTESTCD": "ALT",
    "LBTEST": "Alanine Aminotransferase",
    "LBCAT": "CHEMISTRY",
    "LBORRES": "14",
    "LBORRESU": "U/L",
    "LBORNRLO": "6",
    "LBORNRHI": "32",
    "LBSTRESC": "14",
    "LBSTRESN": 14.0,
    "LBSTRESU": "U/L",
    "LBSTNRLO": 6.0,
    "LBSTNRHI": 32.0,
    "LBNRIND": "NORMAL",
    "LBLOBXFL": "",
    "VISITNUM": 13.0,
    "VISIT": "WEEK 26",
    "EPOCH": "TREATMENT",
    "LBDTC": "2013-08-06T12:00",
    "LBDY": 184.0
  },
  {
    "STUDYID": "CDISCPILOT01",
    "DOMAIN": "LB",
    "USUBJID": "CDISC005",
    "LBSEQ": 296.0,
    "LBTESTCD": "AST",
    "LBTEST": "Aspartate Aminotransferase",
    "LBCAT": "CHEMISTRY",
    "LBORRES": "17",
    "LBORRESU": "U/L",
    "LBORNRLO": "9",
    "LBORNRHI": "34",
    "LBSTRESC": "17",
    "LBSTRESN": 17.0,
    "LBSTRESU": "U/L",
    "LBSTNRLO": 9.0,
    "LBSTNRHI": 34.0,
    "LBNRIND": "NORMAL",
    "LBLOBXFL": "",
    "VISITNUM": 13.0,
    "VISIT": "WEEK 26",
    "EPOCH": "TREATMENT",
    "LBDTC": "2013-08-06T12:00",
    "LBDY": 184.0
  },
  {
    "STUDYID": "CDISCPILOT01",
    "DOMAIN": "LB",
    "USUBJID": "CDISC006",
    "LBSEQ": 2.0,
    "LBTESTCD": "ALP",
    "LBTEST": "Alkaline Phosphatase",
    "LBCAT": "CHEMISTRY",
    "LBORRES": "80",
    "LBORRESU": "U/L",
    "LBORNRLO": "35",
    "LBORNRHI": "115",
    "LBSTRESC": "80",
    "LBSTRESN": 80.0,
    "LBSTRESU": "U/L",
    "LBSTNRLO": 35.0,
    "LBSTNRHI": 115.0,
    "LBNRIND": "NORMAL",
    "LBLOBXFL": "Y",
    "VISITNUM": 1.0,
    "VISIT": "SCREENING 1",
    "EPOCH": "SCREENING",
    "LBDTC": "2013-02-21T16:20",
    "LBDY": -26.0
  },
  {
    "STUDYID": "CDISCPILOT01",
    "DOMAIN": "LB",
    "USUBJID": "CDISC006",
    "LBSEQ": 3.0,
    "LBTESTCD": "ALT",
    "LBTEST": "Alanine Aminotransferase",
    "LBCAT": "CHEMISTRY",
    "LBORRES": "28",
    "LBORRESU": "U/L",
    "LBORNRLO": "6",
    "LBORNRHI": "32",
    "LBSTRESC": "28",
    "LBSTRESN": 28.0,
    "LBSTRESU": "U/L",
    "LBSTNRLO": 6.0,
    "LBSTNRHI": 32.0,
    "LBNRIND": "NORMAL",
    "LBLOBXFL": "Y",
    "VISITNUM": 1.0,
    "VISIT": "SCREENING 1",
    "EPOCH": "SCREENING",
    "LBDTC": "2013-02-21T16:20",
    "LBDY": -26.0
  },
  {
    "STUDYID": "CDISCPILOT01",
    "DOMAIN": "LB",
    "USUBJID": "CDISC006",
    "LBSEQ": 4.0,
    "LBTESTCD": "AST",
    "LBTEST": "Aspartate Aminotransferase",
    "LBCAT": "CHEMISTRY",
    "LBORRES": "26",
    "LBORRESU": "U/L",
    "LBORNRLO": "9",
    "LBORNRHI": "34",
    "LBSTRESC": "26",
    "LBSTRESN": 26.0,
    "LBSTRESU": "U/L",
    "LBSTNRLO": 9.0,
    "LBSTNRHI": 34.0,
    "LBNRIND": "NORMAL",
    "LBLOBXFL": "Y",
    "VISITNUM": 1.0,
    "VISIT": "SCREENING 1",
    "EPOCH": "SCREENING",
    "LBDTC": "2013-02-21T16:20",
    "LBDY": -26.0
  },
  {
    "STUDYID": "CDISCPILOT01",
    "DOMAIN": "LB",
    "USUBJID": "CDISC006",
    "LBSEQ": 39.0,
    "LBTESTCD": "ALP",
    "LBTEST": "Alkaline Phosphatase",
    "LBCAT": "CHEMISTRY",
    "LBORRES": "70",
    "LBORRESU": "U/L",
    "LBORNRLO": "35",
    "LBORNRHI": "115",
    "LBSTRESC": "70",
    "LBSTRESN": 70.0,
    "LBSTRESU": "U/L",
    "LBSTNRLO": 35.0,
    "LBSTNRHI": 115.0,
    "LBNRIND": "NORMAL",
    "LBLOBXFL": "",
    "VISITNUM": 4.0,
    "VISIT": "WEEK 2",
    "EPOCH": "TREATMENT",
    "LBDTC": "2013-04-02T12:41",
    "LBDY": 15.0
  },
  {
    "STUDYID": "CDISCPILOT01",
    "DOMAIN": "LB",
    "USUBJID": "CDISC006",
    "LBSEQ": 40.0,
    "LBTESTCD": "ALT",
    "LBTEST": "Alanine Aminotransferase",
    "LBCAT": "CHEMISTRY",
    "LBORRES": "20",
    "LBORRESU": "U/L",
    "LBORNRLO": "6",
    "LBORNRHI": "32",
    "LBSTRESC": "20",
    "LBSTRESN": 20.0,
    "LBSTRESU": "U/L",
    "LBSTNRLO": 6.0,
    "LBSTNRHI": 32.0,
    "LBNRIND": "NORMAL",
    "LBLOBXFL": "",
    "VISITNUM": 4.0,
    "VISIT": "WEEK 2",
    "EPOCH": "TREATMENT",
    "LBDTC": "2013-04-02T12:41",
    "LBDY": 15.0
  },
  {
    "STUDYID": "CDISCPILOT01",
    "DOMAIN": "LB",
    "USUBJID": "CDISC006",
    "LBSEQ": 41.0,
    "LBTESTCD": "AST",
    "LBTEST": "Aspartate Aminotransferase",
    "LBCAT": "CHEMISTRY",
    "LBORRES": "31",
    "LBORRESU": "U/L",
    "LBORNRLO": "9",
    "LBORNRHI": "34",
    "LBSTRESC": "31",
    "LBSTRESN": 31.0,
    "LBSTRESU": "U/L",
    "LBSTNRLO": 9.0,
    "LBSTNRHI": 34.0,
    "LBNRIND": "NORMAL",
    "LBLOBXFL": "",
    "VISITNUM": 4.0,
    "VISIT": "WEEK 2",
    "EPOCH": "TREATMENT",
    "LBDTC": "2013-04-02T12:41",
    "LBDY": 15.0
  },
  {
    "STUDYID": "CDISCPILOT01",
    "DOMAIN": "LB",
    "USUBJID": "CDISC006",
    "LBSEQ": 74.0,
    "LBTESTCD": "ALP",
    "LBTEST": "Alkaline Phosphatase",
    "LBCAT": "CHEMISTRY",
    "LBORRES": "65",
    "LBORRESU": "U/L",
    "LBORNRLO": "35",
    "LBORNRHI": "115",
    "LBSTRESC": "65",
    "LBSTRESN": 65.0,
    "LBSTRESU": "U/L",
    "LBSTNRLO": 35.0,
    "LBSTNRHI": 115.0,
    "LBNRIND": "NORMAL",
    "LBLOBXFL": "",
    "VISITNUM": 5.0,
    "VISIT": "WEEK 4",
    "EPOCH": "TREATMENT",
    "LBDTC": "2013-04-16T13:10",
    "LBDY": 29.0
  },
  {
    "STUDYID": "CDISCPILOT01",
    "DOMAIN": "LB",
    "USUBJID": "CDISC006",
    "LBSEQ": 75.0,
    "LBTESTCD": "ALT",
    "LBTEST": "Alanine Aminotransferase",
    "LBCAT": "CHEMISTRY",
    "LBORRES": "16",
    "LBORRESU": "U/L",
    "LBORNRLO": "6",
    "LBORNRHI": "32",
    "LBSTRESC": "16",
    "LBSTRESN": 16.0,
    "LBSTRESU": "U/L",
    "LBSTNRLO": 6.0,
    "LBSTNRHI": 32.0,
    "LBNRIND": "NORMAL",
    "LBLOBXFL": "",
    "VISITNUM": 5.0,
    "VISIT": "WEEK 4",
    "EPOCH": "TREATMENT",
    "LBDTC": "2013-04-16T13:10",
    "LBDY": 29.0
  },
  {
    "STUDYID": "CDISCPILOT01",
    "DOMAIN": "LB",
    "USUBJID": "CDISC006",
    "LBSEQ": 76.0,
    "LBTESTCD": "AST",
    "LBTEST": "Aspartate Aminotransferase",
    "LBCAT": "CHEMISTRY",
    "LBORRES": "23",
    "LBORRESU": "U/L",
    "LBORNRLO": "9",
    "LBORNRHI": "34",
    "LBSTRESC": "23",
    "LBSTRESN": 23.0,
    "LBSTRESU": "U/L",
    "LBSTNRLO": 9.0,
    "LBSTNRHI": 34.0,
    "LBNRIND": "NORMAL",
    "LBLOBXFL": "",
    "VISITNUM": 5.0,
    "VISIT": "WEEK 4",
    "EPOCH": "TREATMENT",
    "LBDTC": "2013-04-16T13:10",
    "LBDY": 29.0
  },
  {
    "STUDYID": "CDISCPILOT01",
    "DOMAIN": "LB",
    "USUBJID": "CDISC006",
    "LBSEQ": 104.0,
    "LBTESTCD": "ALP",
    "LBTEST": "Alkaline Phosphatase",
    "LBCAT": "CHEMISTRY",
    "LBORRES": "68",
    "LBORRESU": "U/L",
    "LBORNRLO": "35",
    "LBORNRHI": "115",
    "LBSTRESC": "68",
    "LBSTRESN": 68.0,
    "LBSTRESU": "U/L",
    "LBSTNRLO": 35.0,
    "LBSTNRHI": 115.0,
    "LBNRIND": "NORMAL",
    "LBLOBXFL": "",
    "VISITNUM": 7.0,
    "VISIT": "WEEK 6",
    "EPOCH": "TREATMENT",
    "LBDTC": "2013-04-30T12:22",
    "LBDY": 43.0
  },
  {
    "STUDYID": "CDISCPILOT01",
    "DOMAIN": "LB",
    "USUBJID": "CDISC006",
    "LBSEQ": 105.0,
    "LBTESTCD": "ALT",
    "LBTEST": "Alanine Aminotransferase",
    "LBCAT": "CHEMISTRY",
    "LBORRES": "18",
    "LBORRESU": "U/L",
    "LBORNRLO": "6",
    "LBORNRHI": "32",
    "LBSTRESC": "18",
    "LBSTRESN": 18.0,
    "LBSTRESU": "U/L",
    "LBSTNRLO": 6.0,
    "LBSTNRHI": 32.0,
    "LBNRIND": "NORMAL",
    "LBLOBXFL": "",
    "VISITNUM": 7.0,
    "VISIT": "WEEK 6",
    "EPOCH": "TREATMENT",
    "LBDTC": "2013-04-30T12:22",
    "LBDY": 43.0
  },
  {
    "STUDYID": "CDISCPILOT01",
    "DOMAIN": "LB",
    "USUBJID": "CDISC006",
    "LBSEQ": 106.0,
    "LBTESTCD": "AST",
    "LBTEST": "Aspartate Aminotransferase",
    "LBCAT": "CHEMISTRY",
    "LBORRES": "22",
    "LBORRESU": "U/L",
    "LBORNRLO": "9",
    "LBORNRHI": "34",
    "LBSTRESC": "22",
    "LBSTRESN": 22.0,
    "LBSTRESU": "U/L",
    "LBSTNRLO": 9.0,
    "LBSTNRHI": 34.0,
    "LBNRIND": "NORMAL",
    "LBLOBXFL": "",
    "VISITNUM": 7.0,
    "VISIT": "WEEK 6",
    "EPOCH": "TREATMENT",
    "LBDTC": "2013-04-30T12:22",
    "LBDY": 43.0
  },
  {
    "STUDYID": "CDISCPILOT01",
    "DOMAIN": "LB",
    "USUBJID": "CDISC007",
    "LBSEQ": 2.0,
    "LBTESTCD": "ALP",
    "LBTEST": "Alkaline Phosphatase",
    "LBCAT": "CHEMISTRY",
    "LBORRES": "102",
    "LBORRESU": "U/L",
    "LBORNRLO": "35",
    "LBORNRHI": "115",
    "LBSTRESC": "102",
    "LBSTRESN": 102.0,
    "LBSTRESU": "U/L",
    "LBSTNRLO": 35.0,
    "LBSTNRHI": 115.0,
    "LBNRIND": "NORMAL",
    "LBLOBXFL": "Y",
    "VISITNUM": 1.0,
    "VISIT": "SCREENING 1",
    "EPOCH": "SCREENING",
    "LBDTC": "2012-12-31T11:05",
    "LBDY": -5.0
  },
  {
    "STUDYID": "CDISCPILOT01",
    "DOMAIN": "LB",
    "USUBJID": "CDISC007",
    "LBSEQ": 3.0,
    "LBTESTCD": "ALT",
    "LBTEST": "Alanine Aminotransferase",
    "LBCAT": "CHEMISTRY",
    "LBORRES": "19",
    "LBORRESU": "U/L",
    "LBORNRLO": "6",
    "LBORNRHI": "43",
    "LBSTRESC": "19",
    "LBSTRESN": 19.0,
    "LBSTRESU": "U/L",
    "LBSTNRLO": 6.0,
    "LBSTNRHI": 43.0,
    "LBNRIND": "NORMAL",
    "LBLOBXFL": "Y",
    "VISITNUM": 1.0,
    "VISIT": "SCREENING 1",
    "EPOCH": "SCREENING",
    "LBDTC": "2012-12-31T11:05",
    "LBDY": -5.0
  },
  {
    "STUDYID": "CDISCPILOT01",
    "DOMAIN": "LB",
    "USUBJID": "CDISC007",
    "LBSEQ": 4.0,
    "LBTESTCD": "AST",
    "LBTEST": "Aspartate Aminotransferase",
    "LBCAT": "CHEMISTRY",
    "LBORRES": "19",
    "LBORRESU": "U/L",
    "LBORNRLO": "11",
    "LBORNRHI": "36",
    "LBSTRESC": "19",
    "LBSTRESN": 19.0,
    "LBSTRESU": "U/L",
    "LBSTNRLO": 11.0,
    "LBSTNRHI": 36.0,
    "LBNRIND": "NORMAL",
    "LBLOBXFL": "Y",
    "VISITNUM": 1.0,
    "VISIT": "SCREENING 1",
    "EPOCH": "SCREENING",
    "LBDTC": "2012-12-31T11:05",
    "LBDY": -5.0
  },
  {
    "STUDYID": "CDISCPILOT01",
    "DOMAIN": "LB",
    "USUBJID": "CDISC007",
    "LBSEQ": 39.0,
    "LBTESTCD": "ALP",
    "LBTEST": "Alkaline Phosphatase",
    "LBCAT": "CHEMISTRY",
    "LBORRES": "95",
    "LBORRESU": "U/L",
    "LBORNRLO": "35",
    "LBORNRHI": "115",
    "LBSTRESC": "95",
    "LBSTRESN": 95.0,
    "LBSTRESU": "U/L",
    "LBSTNRLO": 35.0,
    "LBSTNRHI": 115.0,
    "LBNRIND": "NORMAL",
    "LBLOBXFL": "",
    "VISITNUM": 4.0,
    "VISIT": "WEEK 2",
    "EPOCH": "TREATMENT",
    "LBDTC": "2013-01-18T14:19",
    "LBDY": 14.0
  },
  {
    "STUDYID": "CDISCPILOT01",
    "DOMAIN": "LB",
    "USUBJID": "CDISC007",
    "LBSEQ": 40.0,
    "LBTESTCD": "ALT",
    "LBTEST": "Alanine Aminotransferase",
    "LBCAT": "CHEMISTRY",
    "LBORRES": "18",
    "LBORRESU": "U/L",
    "LBORNRLO": "6",
    "LBORNRHI": "43",
    "LBSTRESC": "18",
    "LBSTRESN": 18.0,
    "LBSTRESU": "U/L",
    "LBSTNRLO": 6.0,
    "LBSTNRHI": 43.0,
    "LBNRIND": "NORMAL",
    "LBLOBXFL": "",
    "VISITNUM": 4.0,
    "VISIT": "WEEK 2",
    "EPOCH": "TREATMENT",
    "LBDTC": "2013-01-18T14:19",
    "LBDY": 14.0
  },
  {
    "STUDYID": "CDISCPILOT01",
    "DOMAIN": "LB",
    "USUBJID": "CDISC007",
    "LBSEQ": 41.0,
    "LBTESTCD": "AST",
    "LBTEST": "Aspartate Aminotransferase",
    "LBCAT": "CHEMISTRY",
    "LBORRES": "18",
    "LBORRESU": "U/L",
    "LBORNRLO": "11",
    "LBORNRHI": "36",
    "LBSTRESC": "18",
    "LBSTRESN": 18.0,
    "LBSTRESU": "U/L",
    "LBSTNRLO": 11.0,
    "LBSTNRHI": 36.0,
    "LBNRIND": "NORMAL",
    "LBLOBXFL": "",
    "VISITNUM": 4.0,
    "VISIT": "WEEK 2",
    "EPOCH": "TREATMENT",
    "LBDTC": "2013-01-18T14:19",
    "LBDY": 14.0
  },
  {
    "STUDYID": "CDISCPILOT01",
    "DOMAIN": "LB",
    "USUBJID": "CDISC007",
    "LBSEQ": 74.0,
    "LBTESTCD": "ALP",
    "LBTEST": "Alkaline Phosphatase",
    "LBCAT": "CHEMISTRY",
    "LBORRES": "100",
    "LBORRESU": "U/L",
    "LBORNRLO": "35",
    "LBORNRHI": "115",
    "LBSTRESC": "100",
    "LBSTRESN": 100.0,
    "LBSTRESU": "U/L",
    "LBSTNRLO": 35.0,
    "LBSTNRHI": 115.0,
    "LBNRIND": "NORMAL",
    "LBLOBXFL": "",
    "VISITNUM": 5.0,
    "VISIT": "WEEK 4",
    "EPOCH": "TREATMENT",
    "LBDTC": "2013-01-31T12:36",
    "LBDY": 27.0
  },
  {
    "STUDYID": "CDISCPILOT01",
    "DOMAIN": "LB",
    "USUBJID": "CDISC007",
    "LBSEQ": 75.0,
    "LBTESTCD": "ALT",
    "LBTEST": "Alanine Aminotransferase",
    "LBCAT": "CHEMISTRY",
    "LBORRES": "17",
    "LBORRESU": "U/L",
    "LBORNRLO": "6",
    "LBORNRHI": "43",
    "LBSTRESC": "17",
    "LBSTRESN": 17.0,
    "LBSTRESU": "U/L",
    "LBSTNRLO": 6.0,
    "LBSTNRHI": 43.0,
    "LBNRIND": "NORMAL",
    "LBLOBXFL": "",
    "VISITNUM": 5.0,
    "VISIT": "WEEK 4",
    "EPOCH": "TREATMENT",
    "LBDTC": "2013-01-31T12:36",
    "LBDY": 27.0
  },
  {
    "STUDYID": "CDISCPILOT01",
    "DOMAIN": "LB",
    "USUBJID": "CDISC007",
    "LBSEQ": 76.0,
    "LBTESTCD": "AST",
    "LBTEST": "Aspartate Aminotransferase",
    "LBCAT": "CHEMISTRY",
    "LBORRES": "18",
    "LBORRESU": "U/L",
    "LBORNRLO": "11",
    "LBORNRHI": "36",
    "LBSTRESC": "18",
    "LBSTRESN": 18.0,
    "LBSTRESU": "U/L",
    "LBSTNRLO": 11.0,
    "LBSTNRHI": 36.0,
    "LBNRIND": "NORMAL",
    "LBLOBXFL": "",
    "VISITNUM": 5.0,
    "VISIT": "WEEK 4",
    "EPOCH": "TREATMENT",
    "LBDTC": "2013-01-31T12:36",
    "LBDY": 27.0
  },
  {
    "STUDYID": "CDISCPILOT01",
    "DOMAIN": "LB",
    "USUBJID": "CDISC007",
    "LBSEQ": 104.0,
    "LBTESTCD": "ALP",
    "LBTEST": "Alkaline Phosphatase",
    "LBCAT": "CHEMISTRY",
    "LBORRES": "98",
    "LBORRESU": "U/L",
    "LBORNRLO": "35",
    "LBORNRHI": "115",
    "LBSTRESC": "98",
    "LBSTRESN": 98.0,
    "LBSTRESU": "U/L",
    "LBSTNRLO": 35.0,
    "LBSTNRHI": 115.0,
    "LBNRIND": "NORMAL",
    "LBLOBXFL": "",
    "VISITNUM": 7.0,
    "VISIT": "WEEK 6",
    "EPOCH": "TREATMENT",
    "LBDTC": "2013-02-13T15:53",
    "LBDY": 40.0
  },
  {
    "STUDYID": "CDISCPILOT01",
    "DOMAIN": "LB",
    "USUBJID": "CDISC007",
    "LBSEQ": 105.0,
    "LBTESTCD": "ALT",
    "LBTEST": "Alanine Aminotransferase",
    "LBCAT": "CHEMISTRY",
    "LBORRES": "23",
    "LBORRESU": "U/L",
    "LBORNRLO": "6",
    "LBORNRHI": "43",
    "LBSTRESC": "23",
    "LBSTRESN": 23.0,
    "LBSTRESU": "U/L",
    "LBSTNRLO": 6.0,
    "LBSTNRHI": 43.0,
    "LBNRIND": "NORMAL",
    "LBLOBXFL": "",
    "VISITNUM": 7.0,
    "VISIT": "WEEK 6",
    "EPOCH": "TREATMENT",
    "LBDTC": "2013-02-13T15:53",
    "LBDY": 40.0
  },
  {
    "STUDYID": "CDISCPILOT01",
    "DOMAIN": "LB",
    "USUBJID": "CDISC007",
    "LBSEQ": 106.0,
    "LBTESTCD": "AST",
    "LBTEST": "Aspartate Aminotransferase",
    "LBCAT": "CHEMISTRY",
    "LBORRES": "19",
    "LBORRESU": "U/L",
    "LBORNRLO": "11",
    "LBORNRHI": "36",
    "LBSTRESC": "19",
    "LBSTRESN": 19.0,
    "LBSTRESU": "U/L",
    "LBSTNRLO": 11.0,
    "LBSTNRHI": 36.0,
    "LBNRIND": "NORMAL",
    "LBLOBXFL": "",
    "VISITNUM": 7.0,
    "VISIT": "WEEK 6",
    "EPOCH": "TREATMENT",
    "LBDTC": "2013-02-13T15:53",
    "LBDY": 40.0
  },
  {
    "STUDYID": "CDISCPILOT01",
    "DOMAIN": "LB",
    "USUBJID": "CDISC008",
    "LBSEQ": 2.0,
    "LBTESTCD": "ALP",
    "LBTEST": "Alkaline Phosphatase",
    "LBCAT": "CHEMISTRY",
    "LBORRES": "76",
    "LBORRESU": "U/L",
    "LBORNRLO": "35",
    "LBORNRHI": "115",
    "LBSTRESC": "76",
    "LBSTRESN": 76.0,
    "LBSTRESU": "U/L",
    "LBSTNRLO": 35.0,
    "LBSTNRHI": 115.0,
    "LBNRIND": "NORMAL",
    "LBLOBXFL": "Y",
    "VISITNUM": 1.0,
    "VISIT": "SCREENING 1",
    "EPOCH": "SCREENING",
    "LBDTC": "2014-05-01T12:17",
    "LBDY": -10.0
  },
  {
    "STUDYID": "CDISCPILOT01",
    "DOMAIN": "LB",
    "USUBJID": "CDISC008",
    "LBSEQ": 3.0,
    "LBTESTCD": "ALT",
    "LBTEST": "Alanine Aminotransferase",
    "LBCAT": "CHEMISTRY",
    "LBORRES": "34",
    "LBORRESU": "U/L",
    "LBORNRLO": "6",
    "LBORNRHI": "35",
    "LBSTRESC": "34",
    "LBSTRESN": 34.0,
    "LBSTRESU": "U/L",
    "LBSTNRLO": 6.0,
    "LBSTNRHI": 35.0,
    "LBNRIND": "NORMAL",
    "LBLOBXFL": "Y",
    "VISITNUM": 1.0,
    "VISIT": "SCREENING 1",
    "EPOCH": "SCREENING",
    "LBDTC": "2014-05-01T12:17",
    "LBDY": -10.0
  },
  {
    "STUDYID": "CDISCPILOT01",
    "DOMAIN": "LB",
    "USUBJID": "CDISC008",
    "LBSEQ": 4.0,
    "LBTESTCD": "AST",
    "LBTEST": "Aspartate Aminotransferase",
    "LBCAT": "CHEMISTRY",
    "LBORRES": "31",
    "LBORRESU": "U/L",
    "LBORNRLO": "11",
    "LBORNRHI": "36",
    "LBSTRESC": "31",
    "LBSTRESN": 31.0,
    "LBSTRESU": "U/L",
    "LBSTNRLO": 11.0,
    "LBSTNRHI": 36.0,
    "LBNRIND": "NORMAL",
    "LBLOBXFL": "Y",
    "VISITNUM": 1.0,
    "VISIT": "SCREENING 1",
    "EPOCH": "SCREENING",
    "LBDTC": "2014-05-01T12:17",
    "LBDY": -10.0
  },
  {
    "STUDYID": "CDISCPILOT01",
    "DOMAIN": "LB",
    "USUBJID": "CDISC008",
    "LBSEQ": 52.0,
    "LBTESTCD": "ALP",
    "LBTEST": "Alkaline Phosphatase",
    "LBCAT": "CHEMISTRY",
    "LBORRES": "81",
    "LBORRESU": "U/L",
    "LBORNRLO": "35",
    "LBORNRHI": "115",
    "LBSTRESC": "81",
    "LBSTRESN": 81.0,
    "LBSTRESU": "U/L",
    "LBSTNRLO": 35.0,
    "LBSTNRHI": 115.0,
    "LBNRIND": "NORMAL",
    "LBLOBXFL": "",
    "VISITNUM": 4.0,
    "VISIT": "WEEK 2",
    "EPOCH": "TREATMENT",
    "LBDTC": "2014-05-25T09:16",
    "LBDY": 15.0
  },
  {
    "STUDYID": "CDISCPILOT01",
    "DOMAIN": "LB",
    "USUBJID": "CDISC008",
    "LBSEQ": 53.0,
    "LBTESTCD": "ALT",
    "LBTEST": "Alanine Aminotransferase",
    "LBCAT": "CHEMISTRY",
    "LBORRES": "33",
    "LBORRESU": "U/L",
    "LBORNRLO": "6",
    "LBORNRHI": "35",
    "LBSTRESC": "33",
    "LBSTRESN": 33.0,
    "LBSTRESU": "U/L",
    "LBSTNRLO": 6.0,
    "LBSTNRHI": 35.0,
    "LBNRIND": "NORMAL",
    "LBLOBXFL": "",
    "VISITNUM": 4.0,
    "VISIT": "WEEK 2",
    "EPOCH": "TREATMENT",
    "LBDTC": "2014-05-25T09:16",
    "LBDY": 15.0
  },
  {
    "STUDYID": "CDISCPILOT01",
    "DOMAIN": "LB",
    "USUBJID": "CDISC008",
    "LBSEQ": 55.0,
    "LBTESTCD": "AST",
    "LBTEST": "Aspartate Aminotransferase",
    "LBCAT": "CHEMISTRY",
    "LBORRES": "25",
    "LBORRESU": "U/L",
    "LBORNRLO": "11",
    "LBORNRHI": "36",
    "LBSTRESC": "25",
    "LBSTRESN": 25.0,
    "LBSTRESU": "U/L",
    "LBSTNRLO": 11.0,
    "LBSTNRHI": 36.0,
    "LBNRIND": "NORMAL",
    "LBLOBXFL": "",
    "VISITNUM": 4.0,
    "VISIT": "WEEK 2",
    "EPOCH": "TREATMENT",
    "LBDTC": "2014-05-25T09:16",
    "LBDY": 15.0
  },
  {
    "STUDYID": "CDISCPILOT01",
    "DOMAIN": "LB",
    "USUBJID": "CDISC008",
    "LBSEQ": 89.0,
    "LBTESTCD": "ALP",
    "LBTEST": "Alkaline Phosphatase",
    "LBCAT": "CHEMISTRY",
    "LBORRES": "84",
    "LBORRESU": "U/L",
    "LBORNRLO": "35",
    "LBORNRHI": "115",
    "LBSTRESC": "84",
    "LBSTRESN": 84.0,
    "LBSTRESU": "U/L",
    "LBSTNRLO": 35.0,
    "LBSTNRHI": 115.0,
    "LBNRIND": "NORMAL",
    "LBLOBXFL": "",
    "VISITNUM": 5.0,
    "VISIT": "WEEK 4",
    "EPOCH": "TREATMENT",
    "LBDTC": "2014-06-11T11:00",
    "LBDY": 32.0
  },
  {
    "STUDYID": "CDISCPILOT01",
    "DOMAIN": "LB",
    "USUBJID": "CDISC008",
    "LBSEQ": 90.0,
    "LBTESTCD": "ALT",
    "LBTEST": "Alanine Aminotransferase",
    "LBCAT": "CHEMISTRY",
    "LBORRES": "44",
    "LBORRESU": "U/L",
    "LBORNRLO": "6",
    "LBORNRHI": "35",
    "LBSTRESC": "44",
    "LBSTRESN": 44.0,
    "LBSTRESU": "U/L",
    "LBSTNRLO": 6.0,
    "LBSTNRHI": 35.0,
    "LBNRIND": "HIGH",
    "LBLOBXFL": "",
    "VISITNUM": 5.0,
    "VISIT": "WEEK 4",
    "EPOCH": "TREATMENT",
    "LBDTC": "2014-06-11T11:00",
    "LBDY": 32.0
  },
  {
    "STUDYID": "CDISCPILOT01",
    "DOMAIN": "LB",
    "USUBJID": "CDISC008",
    "LBSEQ": 91.0,
    "LBTESTCD": "AST",
    "LBTEST": "Aspartate Aminotransferase",
    "LBCAT": "CHEMISTRY",
    "LBORRES": "33",
    "LBORRESU": "U/L",
    "LBORNRLO": "11",
    "LBORNRHI": "36",
    "LBSTRESC": "33",
    "LBSTRESN": 33.0,
    "LBSTRESU": "U/L",
    "LBSTNRLO": 11.0,
    "LBSTNRHI": 36.0,
    "LBNRIND": "NORMAL",
    "LBLOBXFL": "",
    "VISITNUM": 5.0,
    "VISIT": "WEEK 4",
    "EPOCH": "TREATMENT",
    "LBDTC": "2014-06-11T11:00",
    "LBDY": 32.0
  },
  {
    "STUDYID": "CDISCPILOT01",
    "DOMAIN": "LB",
    "USUBJID": "CDISC008",
    "LBSEQ": 119.0,
    "LBTESTCD": "ALP",
    "LBTEST": "Alkaline Phosphatase",
    "LBCAT": "CHEMISTRY",
    "LBORRES": "87",
    "LBORRESU": "U/L",
    "LBORNRLO": "35",
    "LBORNRHI": "115",
    "LBSTRESC": "87",
    "LBSTRESN": 87.0,
    "LBSTRESU": "U/L",
    "LBSTNRLO": 35.0,
    "LBSTNRHI": 115.0,
    "LBNRIND": "NORMAL",
    "LBLOBXFL": "",
    "VISITNUM": 7.0,
    "VISIT": "WEEK 6",
    "EPOCH": "TREATMENT",
    "LBDTC": "2014-06-25T14:15",
    "LBDY": 46.0
  },
  {
    "STUDYID": "CDISCPILOT01",
    "DOMAIN": "LB",
    "USUBJID": "CDISC008",
    "LBSEQ": 120.0,
    "LBTESTCD": "ALT",
    "LBTEST": "Alanine Aminotransferase",
    "LBCAT": "CHEMISTRY",
    "LBORRES": "43",
    "LBORRESU": "U/L",
    "LBORNRLO": "6",
    "LBORNRHI": "35",
    "LBSTRESC": "43",
    "LBSTRESN": 43.0,
    "LBSTRESU": "U/L",
    "LBSTNRLO": 6.0,
    "LBSTNRHI": 35.0,
    "LBNRIND": "HIGH",
    "LBLOBXFL": "",
    "VISITNUM": 7.0,
    "VISIT": "WEEK 6",
    "EPOCH": "TREATMENT",
    "LBDTC": "2014-06-25T14:15",
    "LBDY": 46.0
  },
  {
    "STUDYID": "CDISCPILOT01",
    "DOMAIN": "LB",
    "USUBJID": "CDISC008",
    "LBSEQ": 121.0,
    "LBTESTCD": "AST",
    "LBTEST": "Aspartate Aminotransferase",
    "LBCAT": "CHEMISTRY",
    "LBORRES": "30",
    "LBORRESU": "U/L",
    "LBORNRLO": "11",
    "LBORNRHI": "36",
    "LBSTRESC": "30",
    "LBSTRESN": 30.0,
    "LBSTRESU": "U/L",
    "LBSTNRLO": 11.0,
    "LBSTNRHI": 36.0,
    "LBNRIND": "NORMAL",
    "LBLOBXFL": "",
    "VISITNUM": 7.0,
    "VISIT": "WEEK 6",
    "EPOCH": "TREATMENT",
    "LBDTC": "2014-06-25T14:15",
    "LBDY": 46.0
  },
  {
    "STUDYID": "CDISCPILOT01",
    "DOMAIN": "LB",
    "USUBJID": "CDISC008",
    "LBSEQ": 149.0,
    "LBTESTCD": "ALP",
    "LBTEST": "Alkaline Phosphatase",
    "LBCAT": "CHEMISTRY",
    "LBORRES": "80",
    "LBORRESU": "U/L",
    "LBORNRLO": "35",
    "LBORNRHI": "115",
    "LBSTRESC": "80",
    "LBSTRESN": 80.0,
    "LBSTRESU": "U/L",
    "LBSTNRLO": 35.0,
    "LBSTNRHI": 115.0,
    "LBNRIND": "NORMAL",
    "LBLOBXFL": "",
    "VISITNUM": 8.0,
    "VISIT": "WEEK 8",
    "EPOCH": "TREATMENT",
    "LBDTC": "2014-07-09T11:15",
    "LBDY": 60.0
  },
  {
    "STUDYID": "CDISCPILOT01",
    "DOMAIN": "LB",
    "USUBJID": "CDISC008",
    "LBSEQ": 150.0,
    "LBTESTCD": "ALT",
    "LBTEST": "Alanine Aminotransferase",
    "LBCAT": "CHEMISTRY",
    "LBORRES": "48",
    "LBORRESU": "U/L",
    "LBORNRLO": "6",
    "LBORNRHI": "35",
    "LBSTRESC": "48",
    "LBSTRESN": 48.0,
    "LBSTRESU": "U/L",
    "LBSTNRLO": 6.0,
    "LBSTNRHI": 35.0,
    "LBNRIND": "HIGH",
    "LBLOBXFL": "",
    "VISITNUM": 8.0,
    "VISIT": "WEEK 8",
    "EPOCH": "TREATMENT",
    "LBDTC": "2014-07-09T11:15",
    "LBDY": 60.0
  },
  {
    "STUDYID": "CDISCPILOT01",
    "DOMAIN": "LB",
    "USUBJID": "CDISC008",
    "LBSEQ": 151.0,
    "LBTESTCD": "AST",
    "LBTEST": "Aspartate Aminotransferase",
    "LBCAT": "CHEMISTRY",
    "LBORRES": "37",
    "LBORRESU": "U/L",
    "LBORNRLO": "11",
    "LBORNRHI": "36",
    "LBSTRESC": "37",
    "LBSTRESN": 37.0,
    "LBSTRESU": "U/L",
    "LBSTNRLO": 11.0,
    "LBSTNRHI": 36.0,
    "LBNRIND": "HIGH",
    "LBLOBXFL": "",
    "VISITNUM": 8.0,
    "VISIT": "WEEK 8",
    "EPOCH": "TREATMENT",
    "LBDTC": "2014-07-09T11:15",
    "LBDY": 60.0
  },
  {
    "STUDYID": "CDISCPILOT01",
    "DOMAIN": "LB",
    "USUBJID": "CDISC008",
    "LBSEQ": 179.0,
    "LBTESTCD": "ALP",
    "LBTEST": "Alkaline Phosphatase",
    "LBCAT": "CHEMISTRY",
    "LBORRES": "77",
    "LBORRESU": "U/L",
    "LBORNRLO": "35",
    "LBORNRHI": "115",
    "LBSTRESC": "77",
    "LBSTRESN": 77.0,
    "LBSTRESU": "U/L",
    "LBSTNRLO": 35.0,
    "LBSTNRHI": 115.0,
    "LBNRIND": "NORMAL",
    "LBLOBXFL": "",
    "VISITNUM": 9.0,
    "VISIT": "WEEK 12",
    "EPOCH": "TREATMENT",
    "LBDTC": "2014-08-06T15:45",
    "LBDY": 88.0
  },
  {
    "STUDYID": "CDISCPILOT01",
    "DOMAIN": "LB",
    "USUBJID": "CDISC008",
    "LBSEQ": 180.0,
    "LBTESTCD": "ALT",
    "LBTEST": "Alanine Aminotransferase",
    "LBCAT": "CHEMISTRY",
    "LBORRES": "42",
    "LBORRESU": "U/L",
    "LBORNRLO": "6",
    "LBORNRHI": "35",
    "LBSTRESC": "42",
    "LBSTRESN": 42.0,
    "LBSTRESU": "U/L",
    "LBSTNRLO": 6.0,
    "LBSTNRHI": 35.0,
    "LBNRIND": "HIGH",
    "LBLOBXFL": "",
    "VISITNUM": 9.0,
    "VISIT": "WEEK 12",
    "EPOCH": "TREATMENT",
    "LBDTC": "2014-08-06T15:45",
    "LBDY": 88.0
  },
  {
    "STUDYID": "CDISCPILOT01",
    "DOMAIN": "LB",
    "USUBJID": "CDISC008",
    "LBSEQ": 181.0,
    "LBTESTCD": "AST",
    "LBTEST": "Aspartate Aminotransferase",
    "LBCAT": "CHEMISTRY",
    "LBORRES": "33",
    "LBORRESU": "U/L",
    "LBORNRLO": "11",
    "LBORNRHI": "36",
    "LBSTRESC": "33",
    "LBSTRESN": 33.0,
    "LBSTRESU": "U/L",
    "LBSTNRLO": 11.0,
    "LBSTNRHI": 36.0,
    "LBNRIND": "NORMAL",
    "LBLOBXFL": "",
    "VISITNUM": 9.0,
    "VISIT": "WEEK 12",
    "EPOCH": "TREATMENT",
    "LBDTC": "2014-08-06T15:45",
    "LBDY": 88.0
  },
  {
    "STUDYID": "CDISCPILOT01",
    "DOMAIN": "LB",
    "USUBJID": "CDISC008",
    "LBSEQ": 214.0,
    "LBTESTCD": "ALP",
    "LBTEST": "Alkaline Phosphatase",
    "LBCAT": "CHEMISTRY",
    "LBORRES": "81",
    "LBORRESU": "U/L",
    "LBORNRLO": "35",
    "LBORNRHI": "115",
    "LBSTRESC": "81",
    "LBSTRESN": 81.0,
    "LBSTRESU": "U/L",
    "LBSTNRLO": 35.0,
    "LBSTNRHI": 115.0,
    "LBNRIND": "NORMAL",
    "LBLOBXFL": "",
    "VISITNUM": 10.0,
    "VISIT": "WEEK 16",
    "EPOCH": "TREATMENT",
    "LBDTC": "2014-09-03T10:30",
    "LBDY": 116.0
  },
  {
    "STUDYID": "CDISCPILOT01",
    "DOMAIN": "LB",
    "USUBJID": "CDISC008",
    "LBSEQ": 215.0,
    "LBTESTCD": "ALT",
    "LBTEST": "Alanine Aminotransferase",
    "LBCAT": "CHEMISTRY",
    "LBORRES": "48",
    "LBORRESU": "U/L",
    "LBORNRLO": "6",
    "LBORNRHI": "35",
    "LBSTRESC": "48",
    "LBSTRESN": 48.0,
    "LBSTRESU": "U/L",
    "LBSTNRLO": 6.0,
    "LBSTNRHI": 35.0,
    "LBNRIND": "HIGH",
    "LBLOBXFL": "",
    "VISITNUM": 10.0,
    "VISIT": "WEEK 16",
    "EPOCH": "TREATMENT",
    "LBDTC": "2014-09-03T10:30",
    "LBDY": 116.0
  },
  {
    "STUDYID": "CDISCPILOT01",
    "DOMAIN": "LB",
    "USUBJID": "CDISC008",
    "LBSEQ": 216.0,
    "LBTESTCD": "AST",
    "LBTEST": "Aspartate Aminotransferase",
    "LBCAT": "CHEMISTRY",
    "LBORRES": "40",
    "LBORRESU": "U/L",
    "LBORNRLO": "11",
    "LBORNRHI": "36",
    "LBSTRESC": "40",
    "LBSTRESN": 40.0,
    "LBSTRESU": "U/L",
    "LBSTNRLO": 11.0,
    "LBSTNRHI": 36.0,
    "LBNRIND": "HIGH",
    "LBLOBXFL": "",
    "VISITNUM": 10.0,
    "VISIT": "WEEK 16",
    "EPOCH": "TREATMENT",
    "LBDTC": "2014-09-03T10:30",
    "LBDY": 116.0
  },
  {
    "STUDYID": "CDISCPILOT01",
    "DOMAIN": "LB",
    "USUBJID": "CDISC008",
    "LBSEQ": 244.0,
    "LBTESTCD": "ALP",
    "LBTEST": "Alkaline Phosphatase",
    "LBCAT": "CHEMISTRY",
    "LBORRES": "77",
    "LBORRESU": "U/L",
    "LBORNRLO": "35",
    "LBORNRHI": "115",
    "LBSTRESC": "77",
    "LBSTRESN": 77.0,
    "LBSTRESU": "U/L",
    "LBSTNRLO": 35.0,
    "LBSTNRHI": 115.0,
    "LBNRIND": "NORMAL",
    "LBLOBXFL": "",
    "VISITNUM": 11.0,
    "VISIT": "WEEK 20",
    "EPOCH": "TREATMENT",
    "LBDTC": "2014-10-01T09:30",
    "LBDY": 144.0
  },
  {
    "STUDYID": "CDISCPILOT01",
    "DOMAIN": "LB",
    "USUBJID": "CDISC008",
    "LBSEQ": 245.0,
    "LBTESTCD": "ALT",
    "LBTEST": "Alanine Aminotransferase",
    "LBCAT": "CHEMISTRY",
    "LBORRES": "31",
    "LBORRESU": "U/L",
    "LBORNRLO": "6",
    "LBORNRHI": "35",
    "LBSTRESC": "31",
    "LBSTRESN": 31.0,
    "LBSTRESU": "U/L",
    "LBSTNRLO": 6.0,
    "LBSTNRHI": 35.0,
    "LBNRIND": "NORMAL",
    "LBLOBXFL": "",
    "VISITNUM": 11.0,
    "VISIT": "WEEK 20",
    "EPOCH": "TREATMENT",
    "LBDTC": "2014-10-01T09:30",
    "LBDY": 144.0
  },
  {
    "STUDYID": "CDISCPILOT01",
    "DOMAIN": "LB",
    "USUBJID": "CDISC008",
    "LBSEQ": 246.0,
    "LBTESTCD": "AST",
    "LBTEST": "Aspartate Aminotransferase",
    "LBCAT": "CHEMISTRY",
    "LBORRES": "29",
    "LBORRESU": "U/L",
    "LBORNRLO": "11",
    "LBORNRHI": "36",
    "LBSTRESC": "29",
    "LBSTRESN": 29.0,
    "LBSTRESU": "U/L",
    "LBSTNRLO": 11.0,
    "LBSTNRHI": 36.0,
    "LBNRIND": "NORMAL",
    "LBLOBXFL": "",
    "VISITNUM": 11.0,
    "VISIT": "WEEK 20",
    "EPOCH": "TREATMENT",
    "LBDTC": "2014-10-01T09:30",
    "LBDY": 144.0
  },
  {
    "STUDYID": "CDISCPILOT01",
    "DOMAIN": "LB",
    "USUBJID": "CDISC009",
    "LBSEQ": 2.0,
    "LBTESTCD": "ALP",
    "LBTEST": "Alkaline Phosphatase",
    "LBCAT": "CHEMISTRY",
    "LBORRES": "69",
    "LBORRESU": "U/L",
    "LBORNRLO": "35",
    "LBORNRHI": "115",
    "LBSTRESC": "69",
    "LBSTRESN": 69.0,
    "LBSTRESU": "U/L",
    "LBSTNRLO": 35.0,
    "LBSTNRHI": 115.0,
    "LBNRIND": "NORMAL",
    "LBLOBXFL": "Y",
    "VISITNUM": 1.0,
    "VISIT": "SCREENING 1",
    "EPOCH": "SCREENING",
    "LBDTC": "2012-10-06T13:25",
    "LBDY": -16.0
  },
  {
    "STUDYID": "CDISCPILOT01",
    "DOMAIN": "LB",
    "USUBJID": "CDISC009",
    "LBSEQ": 3.0,
    "LBTESTCD": "ALT",
    "LBTEST": "Alanine Aminotransferase",
    "LBCAT": "CHEMISTRY",
    "LBORRES": "9",
    "LBORRESU": "U/L",
    "LBORNRLO": "6",
    "LBORNRHI": "32",
    "LBSTRESC": "9",
    "LBSTRESN": 9.0,
    "LBSTRESU": "U/L",
    "LBSTNRLO": 6.0,
    "LBSTNRHI": 32.0,
    "LBNRIND": "NORMAL",
    "LBLOBXFL": "Y",
    "VISITNUM": 1.0,
    "VISIT": "SCREENING 1",
    "EPOCH": "SCREENING",
    "LBDTC": "2012-10-06T13:25",
    "LBDY": -16.0
  },
  {
    "STUDYID": "CDISCPILOT01",
    "DOMAIN": "LB",
    "USUBJID": "CDISC009",
    "LBSEQ": 4.0,
    "LBTESTCD": "AST",
    "LBTEST": "Aspartate Aminotransferase",
    "LBCAT": "CHEMISTRY",
    "LBORRES": "12",
    "LBORRESU": "U/L",
    "LBORNRLO": "9",
    "LBORNRHI": "34",
    "LBSTRESC": "12",
    "LBSTRESN": 12.0,
    "LBSTRESU": "U/L",
    "LBSTNRLO": 9.0,
    "LBSTNRHI": 34.0,
    "LBNRIND": "NORMAL",
    "LBLOBXFL": "Y",
    "VISITNUM": 1.0,
    "VISIT": "SCREENING 1",
    "EPOCH": "SCREENING",
    "LBDTC": "2012-10-06T13:25",
    "LBDY": -16.0
  },
  {
    "STUDYID": "CDISCPILOT01",
    "DOMAIN": "LB",
    "USUBJID": "CDISC009",
    "LBSEQ": 39.0,
    "LBTESTCD": "ALP",
    "LBTEST": "Alkaline Phosphatase",
    "LBCAT": "CHEMISTRY",
    "LBORRES": "67",
    "LBORRESU": "U/L",
    "LBORNRLO": "35",
    "LBORNRHI": "115",
    "LBSTRESC": "67",
    "LBSTRESN": 67.0,
    "LBSTRESU": "U/L",
    "LBSTNRLO": 35.0,
    "LBSTNRHI": 115.0,
    "LBNRIND": "NORMAL",
    "LBLOBXFL": "",
    "VISITNUM": 4.0,
    "VISIT": "WEEK 2",
    "EPOCH": "TREATMENT",
    "LBDTC": "2012-11-05T11:15",
    "LBDY": 15.0
  },
  {
    "STUDYID": "CDISCPILOT01",
    "DOMAIN": "LB",
    "USUBJID": "CDISC009",
    "LBSEQ": 40.0,
    "LBTESTCD": "ALT",
    "LBTEST": "Alanine Aminotransferase",
    "LBCAT": "CHEMISTRY",
    "LBORRES": "13",
    "LBORRESU": "U/L",
    "LBORNRLO": "6",
    "LBORNRHI": "32",
    "LBSTRESC": "13",
    "LBSTRESN": 13.0,
    "LBSTRESU": "U/L",
    "LBSTNRLO": 6.0,
    "LBSTNRHI": 32.0,
    "LBNRIND": "NORMAL",
    "LBLOBXFL": "",
    "VISITNUM": 4.0,
    "VISIT": "WEEK 2",
    "EPOCH": "TREATMENT",
    "LBDTC": "2012-11-05T11:15",
    "LBDY": 15.0
  },
  {
    "STUDYID": "CDISCPILOT01",
    "DOMAIN": "LB",
    "USUBJID": "CDISC009",
    "LBSEQ": 41.0,
    "LBTESTCD": "AST",
    "LBTEST": "Aspartate Aminotransferase",
    "LBCAT": "CHEMISTRY",
    "LBORRES": "12",
    "LBORRESU": "U/L",
    "LBORNRLO": "9",
    "LBORNRHI": "34",
    "LBSTRESC": "12",
    "LBSTRESN": 12.0,
    "LBSTRESU": "U/L",
    "LBSTNRLO": 9.0,
    "LBSTNRHI": 34.0,
    "LBNRIND": "NORMAL",
    "LBLOBXFL": "",
    "VISITNUM": 4.0,
    "VISIT": "WEEK 2",
    "EPOCH": "TREATMENT",
    "LBDTC": "2012-11-05T11:15",
    "LBDY": 15.0
  },
  {
    "STUDYID": "CDISCPILOT01",
    "DOMAIN": "LB",
    "USUBJID": "CDISC009",
    "LBSEQ": 74.0,
    "LBTESTCD": "ALP",
    "LBTEST": "Alkaline Phosphatase",
    "LBCAT": "CHEMISTRY",
    "LBORRES": "76",
    "LBORRESU": "U/L",
    "LBORNRLO": "35",
    "LBORNRHI": "115",
    "LBSTRESC": "76",
    "LBSTRESN": 76.0,
    "LBSTRESU": "U/L",
    "LBSTNRLO": 35.0,
    "LBSTNRHI": 115.0,
    "LBNRIND": "NORMAL",
    "LBLOBXFL": "",
    "VISITNUM": 5.0,
    "VISIT": "WEEK 4",
    "EPOCH": "TREATMENT",
    "LBDTC": "2012-11-20T13:00",
    "LBDY": 30.0
  },
  {
    "STUDYID": "CDISCPILOT01",
    "DOMAIN": "LB",
    "USUBJID": "CDISC009",
    "LBSEQ": 75.0,
    "LBTESTCD": "ALT",
    "LBTEST": "Alanine Aminotransferase",
    "LBCAT": "CHEMISTRY",
    "LBORRES": "14",
    "LBORRESU": "U/L",
    "LBORNRLO": "6",
    "LBORNRHI": "32",
    "LBSTRESC": "14",
    "LBSTRESN": 14.0,
    "LBSTRESU": "U/L",
    "LBSTNRLO": 6.0,
    "LBSTNRHI": 32.0,
    "LBNRIND": "NORMAL",
    "LBLOBXFL": "",
    "VISITNUM": 5.0,
    "VISIT": "WEEK 4",
    "EPOCH": "TREATMENT",
    "LBDTC": "2012-11-20T13:00",
    "LBDY": 30.0
  },
  {
    "STUDYID": "CDISCPILOT01",
    "DOMAIN": "LB",
    "USUBJID": "CDISC009",
    "LBSEQ": 76.0,
    "LBTESTCD": "AST",
    "LBTEST": "Aspartate Aminotransferase",
    "LBCAT": "CHEMISTRY",
    "LBORRES": "14",
    "LBORRESU": "U/L",
    "LBORNRLO": "9",
    "LBORNRHI": "34",
    "LBSTRESC": "14",
    "LBSTRESN": 14.0,
    "LBSTRESU": "U/L",
    "LBSTNRLO": 9.0,
    "LBSTNRHI": 34.0,
    "LBNRIND": "NORMAL",
    "LBLOBXFL": "",
    "VISITNUM": 5.0,
    "VISIT": "WEEK 4",
    "EPOCH": "TREATMENT",
    "LBDTC": "2012-11-20T13:00",
    "LBDY": 30.0
  },
  {
    "STUDYID": "CDISCPILOT01",
    "DOMAIN": "LB",
    "USUBJID": "CDISC009",
    "LBSEQ": 104.0,
    "LBTESTCD": "ALP",
    "LBTEST": "Alkaline Phosphatase",
    "LBCAT": "CHEMISTRY",
    "LBORRES": "74",
    "LBORRESU": "U/L",
    "LBORNRLO": "35",
    "LBORNRHI": "115",
    "LBSTRESC": "74",
    "LBSTRESN": 74.0,
    "LBSTRESU": "U/L",
    "LBSTNRLO": 35.0,
    "LBSTNRHI": 115.0,
    "LBNRIND": "NORMAL",
    "LBLOBXFL": "",
    "VISITNUM": 7.0,
    "VISIT": "WEEK 6",
    "EPOCH": "TREATMENT",
    "LBDTC": "2012-12-08T11:00",
    "LBDY": 48.0
  },
  {
    "STUDYID": "CDISCPILOT01",
    "DOMAIN": "LB",
    "USUBJID": "CDISC009",
    "LBSEQ": 105.0,
    "LBTESTCD": "ALT",
    "LBTEST": "Alanine Aminotransferase",
    "LBCAT": "CHEMISTRY",
    "LBORRES": "13",
    "LBORRESU": "U/L",
    "LBORNRLO": "6",
    "LBORNRHI": "32",
    "LBSTRESC": "13",
    "LBSTRESN": 13.0,
    "LBSTRESU": "U/L",
    "LBSTNRLO": 6.0,
    "LBSTNRHI": 32.0,
    "LBNRIND": "NORMAL",
    "LBLOBXFL": "",
    "VISITNUM": 7.0,
    "VISIT": "WEEK 6",
    "EPOCH": "TREATMENT",
    "LBDTC": "2012-12-08T11:00",
    "LBDY": 48.0
  },
  {
    "STUDYID": "CDISCPILOT01",
    "DOMAIN": "LB",
    "USUBJID": "CDISC009",
    "LBSEQ": 106.0,
    "LBTESTCD": "AST",
    "LBTEST": "Aspartate Aminotransferase",
    "LBCAT": "CHEMISTRY",
    "LBORRES": "14",
    "LBORRESU": "U/L",
    "LBORNRLO": "9",
    "LBORNRHI": "34",
    "LBSTRESC": "14",
    "LBSTRESN": 14.0,
    "LBSTRESU": "U/L",
    "LBSTNRLO": 9.0,
    "LBSTNRHI": 34.0,
    "LBNRIND": "NORMAL",
    "LBLOBXFL": "",
    "VISITNUM": 7.0,
    "VISIT": "WEEK 6",
    "EPOCH": "TREATMENT",
    "LBDTC": "2012-12-08T11:00",
    "LBDY": 48.0
  },
  {
    "STUDYID": "CDISCPILOT01",
    "DOMAIN": "LB",
    "USUBJID": "CDISC009",
    "LBSEQ": 134.0,
    "LBTESTCD": "ALP",
    "LBTEST": "Alkaline Phosphatase",
    "LBCAT": "CHEMISTRY",
    "LBORRES": "65",
    "LBORRESU": "U/L",
    "LBORNRLO": "35",
    "LBORNRHI": "115",
    "LBSTRESC": "65",
    "LBSTRESN": 65.0,
    "LBSTRESU": "U/L",
    "LBSTNRLO": 35.0,
    "LBSTNRHI": 115.0,
    "LBNRIND": "NORMAL",
    "LBLOBXFL": "",
    "VISITNUM": 8.0,
    "VISIT": "WEEK 8",
    "EPOCH": "TREATMENT",
    "LBDTC": "2012-12-22T10:40",
    "LBDY": 62.0
  },
  {
    "STUDYID": "CDISCPILOT01",
    "DOMAIN": "LB",
    "USUBJID": "CDISC009",
    "LBSEQ": 135.0,
    "LBTESTCD": "ALT",
    "LBTEST": "Alanine Aminotransferase",
    "LBCAT": "CHEMISTRY",
    "LBORRES": "10",
    "LBORRESU": "U/L",
    "LBORNRLO": "6",
    "LBORNRHI": "32",
    "LBSTRESC": "10",
    "LBSTRESN": 10.0,
    "LBSTRESU": "U/L",
    "LBSTNRLO": 6.0,
    "LBSTNRHI": 32.0,
    "LBNRIND": "NORMAL",
    "LBLOBXFL": "",
    "VISITNUM": 8.0,
    "VISIT": "WEEK 8",
    "EPOCH": "TREATMENT",
    "LBDTC": "2012-12-22T10:40",
    "LBDY": 62.0
  },
  {
    "STUDYID": "CDISCPILOT01",
    "DOMAIN": "LB",
    "USUBJID": "CDISC009",
    "LBSEQ": 136.0,
    "LBTESTCD": "AST",
    "LBTEST": "Aspartate Aminotransferase",
    "LBCAT": "CHEMISTRY",
    "LBORRES": "9",
    "LBORRESU": "U/L",
    "LBORNRLO": "9",
    "LBORNRHI": "34",
    "LBSTRESC": "9",
    "LBSTRESN": 9.0,
    "LBSTRESU": "U/L",
    "LBSTNRLO": 9.0,
    "LBSTNRHI": 34.0,
    "LBNRIND": "NORMAL",
    "LBLOBXFL": "",
    "VISITNUM": 8.0,
    "VISIT": "WEEK 8",
    "EPOCH": "TREATMENT",
    "LBDTC": "2012-12-22T10:40",
    "LBDY": 62.0
  },
  {
    "STUDYID": "CDISCPILOT01",
    "DOMAIN": "LB",
    "USUBJID": "CDISC009",
    "LBSEQ": 164.0,
    "LBTESTCD": "ALP",
    "LBTEST": "Alkaline Phosphatase",
    "LBCAT": "CHEMISTRY",
    "LBORRES": "68",
    "LBORRESU": "U/L",
    "LBORNRLO": "35",
    "LBORNRHI": "115",
    "LBSTRESC": "68",
    "LBSTRESN": 68.0,
    "LBSTRESU": "U/L",
    "LBSTNRLO": 35.0,
    "LBSTNRHI": 115.0,
    "LBNRIND": "NORMAL",
    "LBLOBXFL": "",
    "VISITNUM": 9.0,
    "VISIT": "WEEK 12",
    "EPOCH": "TREATMENT",
    "LBDTC": "2013-01-19T15:15",
    "LBDY": 90.0
  },
  {
    "STUDYID": "CDISCPILOT01",
    "DOMAIN": "LB",
    "USUBJID": "CDISC009",
    "LBSEQ": 165.0,
    "LBTESTCD": "ALT",
    "LBTEST": "Alanine Aminotransferase",
    "LBCAT": "CHEMISTRY",
    "LBORRES": "11",
    "LBORRESU": "U/L",
    "LBORNRLO": "6",
    "LBORNRHI": "32",
    "LBSTRESC": "11",
    "LBSTRESN": 11.0,
    "LBSTRESU": "U/L",
    "LBSTNRLO": 6.0,
    "LBSTNRHI": 32.0,
    "LBNRIND": "NORMAL",
    "LBLOBXFL": "",
    "VISITNUM": 9.0,
    "VISIT": "WEEK 12",
    "EPOCH": "TREATMENT",
    "LBDTC": "2013-01-19T15:15",
    "LBDY": 90.0
  },
  {
    "STUDYID": "CDISCPILOT01",
    "DOMAIN": "LB",
    "USUBJID": "CDISC009",
    "LBSEQ": 166.0,
    "LBTESTCD": "AST",
    "LBTEST": "Aspartate Aminotransferase",
    "LBCAT": "CHEMISTRY",
    "LBORRES": "13",
    "LBORRESU": "U/L",
    "LBORNRLO": "9",
    "LBORNRHI": "34",
    "LBSTRESC": "13",
    "LBSTRESN": 13.0,
    "LBSTRESU": "U/L",
    "LBSTNRLO": 9.0,
    "LBSTNRHI": 34.0,
    "LBNRIND": "NORMAL",
    "LBLOBXFL": "",
    "VISITNUM": 9.0,
    "VISIT": "WEEK 12",
    "EPOCH": "TREATMENT",
    "LBDTC": "2013-01-19T15:15",
    "LBDY": 90.0
  },
  {
    "STUDYID": "CDISCPILOT01",
    "DOMAIN": "LB",
    "USUBJID": "CDISC009",
    "LBSEQ": 199.0,
    "LBTESTCD": "ALP",
    "LBTEST": "Alkaline Phosphatase",
    "LBCAT": "CHEMISTRY",
    "LBORRES": "69",
    "LBORRESU": "U/L",
    "LBORNRLO": "35",
    "LBORNRHI": "115",
    "LBSTRESC": "69",
    "LBSTRESN": 69.0,
    "LBSTRESU": "U/L",
    "LBSTNRLO": 35.0,
    "LBSTNRHI": 115.0,
    "LBNRIND": "NORMAL",
    "LBLOBXFL": "",
    "VISITNUM": 10.0,
    "VISIT": "WEEK 16",
    "EPOCH": "TREATMENT",
    "LBDTC": "2013-02-16T13:15",
    "LBDY": 118.0
  },
  {
    "STUDYID": "CDISCPILOT01",
    "DOMAIN": "LB",
    "USUBJID": "CDISC009",
    "LBSEQ": 200.0,
    "LBTESTCD": "ALT",
    "LBTEST": "Alanine Aminotransferase",
    "LBCAT": "CHEMISTRY",
    "LBORRES": "13",
    "LBORRESU": "U/L",
    "LBORNRLO": "6",
    "LBORNRHI": "32",
    "LBSTRESC": "13",
    "LBSTRESN": 13.0,
    "LBSTRESU": "U/L",
    "LBSTNRLO": 6.0,
    "LBSTNRHI": 32.0,
    "LBNRIND": "NORMAL",
    "LBLOBXFL": "",
    "VISITNUM": 10.0,
    "VISIT": "WEEK 16",
    "EPOCH": "TREATMENT",
    "LBDTC": "2013-02-16T13:15",
    "LBDY": 118.0
  },
  {
    "STUDYID": "CDISCPILOT01",
    "DOMAIN": "LB",
    "USUBJID": "CDISC009",
    "LBSEQ": 202.0,
    "LBTESTCD": "AST",
    "LBTEST": "Aspartate Aminotransferase",
    "LBCAT": "CHEMISTRY",
    "LBORRES": "14",
    "LBORRESU": "U/L",
    "LBORNRLO": "9",
    "LBORNRHI": "34",
    "LBSTRESC": "14",
    "LBSTRESN": 14.0,
    "LBSTRESU": "U/L",
    "LBSTNRLO": 9.0,
    "LBSTNRHI": 34.0,
    "LBNRIND": "NORMAL",
    "LBLOBXFL": "",
    "VISITNUM": 10.0,
    "VISIT": "WEEK 16",
    "EPOCH": "TREATMENT",
    "LBDTC": "2013-02-16T13:15",
    "LBDY": 118.0
  },
  {
    "STUDYID": "CDISCPILOT01",
    "DOMAIN": "LB",
    "USUBJID": "CDISC009",
    "LBSEQ": 230.0,
    "LBTESTCD": "ALP",
    "LBTEST": "Alkaline Phosphatase",
    "LBCAT": "CHEMISTRY",
    "LBORRES": "58",
    "LBORRESU": "U/L",
    "LBORNRLO": "35",
    "LBORNRHI": "115",
    "LBSTRESC": "58",
    "LBSTRESN": 58.0,
    "LBSTRESU": "U/L",
    "LBSTNRLO": 35.0,
    "LBSTNRHI": 115.0,
    "LBNRIND": "NORMAL",
    "LBLOBXFL": "",
    "VISITNUM": 11.0,
    "VISIT": "WEEK 20",
    "EPOCH": "TREATMENT",
    "LBDTC": "2013-03-16T08:50",
    "LBDY": 146.0
  },
  {
    "STUDYID": "CDISCPILOT01",
    "DOMAIN": "LB",
    "USUBJID": "CDISC009",
    "LBSEQ": 231.0,
    "LBTESTCD": "ALT",
    "LBTEST": "Alanine Aminotransferase",
    "LBCAT": "CHEMISTRY",
    "LBORRES": "9",
    "LBORRESU": "U/L",
    "LBORNRLO": "6",
    "LBORNRHI": "32",
    "LBSTRESC": "9",
    "LBSTRESN": 9.0,
    "LBSTRESU": "U/L",
    "LBSTNRLO": 6.0,
    "LBSTNRHI": 32.0,
    "LBNRIND": "NORMAL",
    "LBLOBXFL": "",
    "VISITNUM": 11.0,
    "VISIT": "WEEK 20",
    "EPOCH": "TREATMENT",
    "LBDTC": "2013-03-16T08:50",
    "LBDY": 146.0
  },
  {
    "STUDYID": "CDISCPILOT01",
    "DOMAIN": "LB",
    "USUBJID": "CDISC009",
    "LBSEQ": 232.0,
    "LBTESTCD": "AST",
    "LBTEST": "Aspartate Aminotransferase",
    "LBCAT": "CHEMISTRY",
    "LBORRES": "12",
    "LBORRESU": "U/L",
    "LBORNRLO": "9",
    "LBORNRHI": "34",
    "LBSTRESC": "12",
    "LBSTRESN": 12.0,
    "LBSTRESU": "U/L",
    "LBSTNRLO": 9.0,
    "LBSTNRHI": 34.0,
    "LBNRIND": "NORMAL",
    "LBLOBXFL": "",
    "VISITNUM": 11.0,
    "VISIT": "WEEK 20",
    "EPOCH": "TREATMENT",
    "LBDTC": "2013-03-16T08:50",
    "LBDY": 146.0
  },
  {
    "STUDYID": "CDISCPILOT01",
    "DOMAIN": "LB",
    "USUBJID": "CDISC009",
    "LBSEQ": 260.0,
    "LBTESTCD": "ALP",
    "LBTEST": "Alkaline Phosphatase",
    "LBCAT": "CHEMISTRY",
    "LBORRES": "69",
    "LBORRESU": "U/L",
    "LBORNRLO": "35",
    "LBORNRHI": "115",
    "LBSTRESC": "69",
    "LBSTRESN": 69.0,
    "LBSTRESU": "U/L",
    "LBSTNRLO": 35.0,
    "LBSTNRHI": 115.0,
    "LBNRIND": "NORMAL",
    "LBLOBXFL": "",
    "VISITNUM": 12.0,
    "VISIT": "WEEK 24",
    "EPOCH": "TREATMENT",
    "LBDTC": "2013-04-10T12:30",
    "LBDY": 171.0
  },
  {
    "STUDYID": "CDISCPILOT01",
    "DOMAIN": "LB",
    "USUBJID": "CDISC009",
    "LBSEQ": 261.0,
    "LBTESTCD": "ALT",
    "LBTEST": "Alanine Aminotransferase",
    "LBCAT": "CHEMISTRY",
    "LBORRES": "13",
    "LBORRESU": "U/L",
    "LBORNRLO": "6",
    "LBORNRHI": "32",
    "LBSTRESC": "13",
    "LBSTRESN": 13.0,
    "LBSTRESU": "U/L",
    "LBSTNRLO": 6.0,
    "LBSTNRHI": 32.0,
    "LBNRIND": "NORMAL",
    "LBLOBXFL": "",
    "VISITNUM": 12.0,
    "VISIT": "WEEK 24",
    "EPOCH": "TREATMENT",
    "LBDTC": "2013-04-10T12:30",
    "LBDY": 171.0
  },
  {
    "STUDYID": "CDISCPILOT01",
    "DOMAIN": "LB",
    "USUBJID": "CDISC009",
    "LBSEQ": 262.0,
    "LBTESTCD": "AST",
    "LBTEST": "Aspartate Aminotransferase",
    "LBCAT": "CHEMISTRY",
    "LBORRES": "17",
    "LBORRESU": "U/L",
    "LBORNRLO": "9",
    "LBORNRHI": "34",
    "LBSTRESC": "17",
    "LBSTRESN": 17.0,
    "LBSTRESU": "U/L",
    "LBSTNRLO": 9.0,
    "LBSTNRHI": 34.0,
    "LBNRIND": "NORMAL",
    "LBLOBXFL": "",
    "VISITNUM": 12.0,
    "VISIT": "WEEK 24",
    "EPOCH": "TREATMENT",
    "LBDTC": "2013-04-10T12:30",
    "LBDY": 171.0
  },
  {
    "STUDYID": "CDISCPILOT01",
    "DOMAIN": "LB",
    "USUBJID": "CDISC009",
    "LBSEQ": 295.0,
    "LBTESTCD": "ALP",
    "LBTEST": "Alkaline Phosphatase",
    "LBCAT": "CHEMISTRY",
    "LBORRES": "63",
    "LBORRESU": "U/L",
    "LBORNRLO": "35",
    "LBORNRHI": "115",
    "LBSTRESC": "63",
    "LBSTRESN": 63.0,
    "LBSTRESU": "U/L",
    "LBSTNRLO": 35.0,
    "LBSTNRHI": 115.0,
    "LBNRIND": "NORMAL",
    "LBLOBXFL": "",
    "VISITNUM": 13.0,
    "VISIT": "WEEK 26",
    "EPOCH": "TREATMENT",
    "LBDTC": "2013-04-28T12:40",
    "LBDY": 189.0
  },
  {
    "STUDYID": "CDISCPILOT01",
    "DOMAIN": "LB",
    "USUBJID": "CDISC009",
    "LBSEQ": 296.0,
    "LBTESTCD": "ALT",
    "LBTEST": "Alanine Aminotransferase",
    "LBCAT": "CHEMISTRY",
    "LBORRES": "9",
    "LBORRESU": "U/L",
    "LBORNRLO": "6",
    "LBORNRHI": "32",
    "LBSTRESC": "9",
    "LBSTRESN": 9.0,
    "LBSTRESU": "U/L",
    "LBSTNRLO": 6.0,
    "LBSTNRHI": 32.0,
    "LBNRIND": "NORMAL",
    "LBLOBXFL": "",
    "VISITNUM": 13.0,
    "VISIT": "WEEK 26",
    "EPOCH": "TREATMENT",
    "LBDTC": "2013-04-28T12:40",
    "LBDY": 189.0
  },
  {
    "STUDYID": "CDISCPILOT01",
    "DOMAIN": "LB",
    "USUBJID": "CDISC009",
    "LBSEQ": 297.0,
    "LBTESTCD": "AST",
    "LBTEST": "Aspartate Aminotransferase",
    "LBCAT": "CHEMISTRY",
    "LBORRES": "10",
    "LBORRESU": "U/L",
    "LBORNRLO": "9",
    "LBORNRHI": "34",
    "LBSTRESC": "10",
    "LBSTRESN": 10.0,
    "LBSTRESU": "U/L",
    "LBSTNRLO": 9.0,
    "LBSTNRHI": 34.0,
    "LBNRIND": "NORMAL",
    "LBLOBXFL": "",
    "VISITNUM": 13.0,
    "VISIT": "WEEK 26",
    "EPOCH": "TREATMENT",
    "LBDTC": "2013-04-28T12:40",
    "LBDY": 189.0
  },
  {
    "STUDYID": "CDISCPILOT01",
    "DOMAIN": "LB",
    "USUBJID": "CDISC010",
    "LBSEQ": 2.0,
    "LBTESTCD": "ALT",
    "LBTEST": "Alanine Aminotransferase",
    "LBCAT": "CHEMISTRY",
    "LBORRES": "16",
    "LBORRESU": "U/L",
    "LBORNRLO": "6",
    "LBORNRHI": "32",
    "LBSTRESC": "16",
    "LBSTRESN": 16.0,
    "LBSTRESU": "U/L",
    "LBSTNRLO": 6.0,
    "LBSTNRHI": 32.0,
    "LBNRIND": "NORMAL",
    "LBLOBXFL": "Y",
    "VISITNUM": 1.0,
    "VISIT": "SCREENING 1",
    "EPOCH": "SCREENING",
    "LBDTC": "2013-09-08T12:40",
    "LBDY": -13.0
  },
  {
    "STUDYID": "CDISCPILOT01",
    "DOMAIN": "LB",
    "USUBJID": "CDISC010",
    "LBSEQ": 4.0,
    "LBTESTCD": "AST",
    "LBTEST": "Aspartate Aminotransferase",
    "LBCAT": "CHEMISTRY",
    "LBORRES": "33",
    "LBORRESU": "U/L",
    "LBORNRLO": "9",
    "LBORNRHI": "34",
    "LBSTRESC": "33",
    "LBSTRESN": 33.0,
    "LBSTRESU": "U/L",
    "LBSTNRLO": 9.0,
    "LBSTNRHI": 34.0,
    "LBNRIND": "NORMAL",
    "LBLOBXFL": "Y",
    "VISITNUM": 1.0,
    "VISIT": "SCREENING 1",
    "EPOCH": "SCREENING",
    "LBDTC": "2013-09-08T12:40",
    "LBDY": -13.0
  },
  {
    "STUDYID": "CDISCPILOT01",
    "DOMAIN": "LB",
    "USUBJID": "CDISC010",
    "LBSEQ": 37.0,
    "LBTESTCD": "ALP",
    "LBTEST": "Alkaline Phosphatase",
    "LBCAT": "CHEMISTRY",
    "LBORRES": "85",
    "LBORRESU": "U/L",
    "LBORNRLO": "35",
    "LBORNRHI": "115",
    "LBSTRESC": "85",
    "LBSTRESN": 85.0,
    "LBSTRESU": "U/L",
    "LBSTNRLO": 35.0,
    "LBSTNRHI": 115.0,
    "LBNRIND": "NORMAL",
    "LBLOBXFL": "",
    "VISITNUM": 1.01,
    "VISIT": "SCREENING 1: UNSCHEDULED 01",
    "EPOCH": "SCREENING",
    "LBDTC": "2013-09-19T10:35",
    "LBDY": -2.0
  },
  {
    "STUDYID": "CDISCPILOT01",
    "DOMAIN": "LB",
    "USUBJID": "CDISC010",
    "LBSEQ": 38.0,
    "LBTESTCD": "ALT",
    "LBTEST": "Alanine Aminotransferase",
    "LBCAT": "CHEMISTRY",
    "LBORRES": "13",
    "LBORRESU": "U/L",
    "LBORNRLO": "6",
    "LBORNRHI": "32",
    "LBSTRESC": "13",
    "LBSTRESN": 13.0,
    "LBSTRESU": "U/L",
    "LBSTNRLO": 6.0,
    "LBSTNRHI": 32.0,
    "LBNRIND": "NORMAL",
    "LBLOBXFL": "",
    "VISITNUM": 1.01,
    "VISIT": "SCREENING 1: UNSCHEDULED 01",
    "EPOCH": "SCREENING",
    "LBDTC": "2013-09-19T10:35",
    "LBDY": -2.0
  },
  {
    "STUDYID": "CDISCPILOT01",
    "DOMAIN": "LB",
    "USUBJID": "CDISC010",
    "LBSEQ": 39.0,
    "LBTESTCD": "AST",
    "LBTEST": "Aspartate Aminotransferase",
    "LBCAT": "CHEMISTRY",
    "LBORRES": "19",
    "LBORRESU": "U/L",
    "LBORNRLO": "9",
    "LBORNRHI": "34",
    "LBSTRESC": "19",
    "LBSTRESN": 19.0,
    "LBSTRESU": "U/L",
    "LBSTNRLO": 9.0,
    "LBSTNRHI": 34.0,
    "LBNRIND": "NORMAL",
    "LBLOBXFL": "",
    "VISITNUM": 1.01,
    "VISIT": "SCREENING 1: UNSCHEDULED 01",
    "EPOCH": "SCREENING",
    "LBDTC": "2013-09-19T10:35",
    "LBDY": -2.0
  }
]