[
  {
    "STUDYID": "CDISCPILOT01",
    "DOMAIN": "VS",
    "USUBJID": "CDISC001",
    "VSSEQ": 1.0,
    "VSTESTCD": "DIABP",
    "VSTEST": "Diastolic Blood Pressure",
    "VSPOS": "STANDING",
    "VSORRES": "71",
    "VSORRESU": "mmHg",
    "VSSTRESC": "71",
    "VSSTRESN": 71.0,
    "VSSTRESU": "mmHg",
    "VSSTAT": "",
    "VSLOC": "",
    "VSLOBXFL": "",
    "VSREPNUM": "",
    "VISITNUM": 1.0,
    "VISIT": "SCREENING 1",
    "EPOCH": "SCREENING",
    "VSDTC": "2012-11-23",
    "VSDY": -7.0
  },
  {
    "STUDYID": "CDISCPILOT01",
    "DOMAIN": "VS",
    "USUBJID": "CDISC001",
    "VSSEQ": 2.0,
    "VSTESTCD": "DIABP",
    "VSTEST": "Diastolic Blood Pressure",
    "VSPOS": "STANDING",
    "VSORRES": "71",
    "VSORRESU": "mmHg",
    "VSSTRESC": "71",
    "VSSTRESN": 71.0,
    "VSSTRESU": "mmHg",
    "VSSTAT": "",
    "VSLOC": "",
    "VSLOBXFL": "",
    "VSREPNUM": "",
    "VISITNUM": 2.0,
    "VISIT": "SCREENING 2",
    "EPOCH": "SCREENING",
    "VSDTC": "2012-11-28",
    "VSDY": -2.0
  },
  {
    "STUDYID": "CDISCPILOT01",
    "DOMAIN": "VS",
    "USUBJID": "CDISC001",
    "VSSEQ": 3.0,
    "VSTESTCD": "DIABP",
    "VSTEST": "Diastolic Blood Pressure",
    "VSPOS": "STANDING",
    "VSORRES": "83",
    "VSORRESU": "mmHg",
    "VSSTRESC": "83",
    "VSSTRESN": 83.0,
    "VSSTRESU": "mmHg",
    "VSSTAT": "",
    "VSLOC": "",
    "VSLOBXFL": "Y",
    "VSREPNUM": "",
    "VISITNUM": 3.0,
    "VISIT": "BASELINE",
    "EPOCH": "SCREENING",
    "VSDTC": "2012-11-30",
    "VSDY": 1.0
  },
  {
    "STUDYID": "CDISCPILOT01",
    "DOMAIN": "VS",
    "USUBJID": "CDISC001",
    "VSSEQ": 4.0,
    "VSTESTCD": "DIABP",
    "VSTEST": "Diastolic Blood Pressure",
    "VSPOS": "STANDING",
    "VSORRES": "79",
    "VSORRESU": "mmHg",
    "VSSTRESC": "79",
    "VSSTRESN": 79.0,
    "VSSTRESU": "mmHg",
    "VSSTAT": "",
    "VSLOC": "",
    "VSLOBXFL": "",
    "VSREPNUM": "",
    "VISITNUM": 4.0,
    "VISIT": "WEEK 2",
    "EPOCH": "TREATMENT",
    "VSDTC": "2012-12-13",
    "VSDY": 14.0
  },
  {
    "STUDYID": "CDISCPILOT01",
    "DOMAIN": "VS",
    "USUBJID": "CDISC001",
    "VSSEQ": 5.0,
    "VSTESTCD": "DIABP",
    "VSTEST": "Diastolic Blood Pressure",
    "VSPOS": "STANDING",
    "VSORRES": "68",
    "VSORRESU": "mmHg",
    "VSSTRESC": "68",
    "VSSTRESN": 68.0,
    "VSSTRESU": "mmHg",
    "VSSTAT": "",
    "VSLOC": "",
    "VSLOBXFL": "",
    "VSREPNUM": "",
    "VISITNUM": 5.0,
    "VISIT": "WEEK 4",
    "EPOCH": "TREATMENT",
    "VSDTC": "2012-12-26",
    "VSDY": 27.0
  },
  {
    "STUDYID": "CDISCPILOT01",
    "DOMAIN": "VS",
    "USUBJID": "CDISC001",
    "VSSEQ": 6.0,
    "VSTESTCD": "DIABP",
    "VSTEST": "Diastolic Blood Pressure",
    "VSPOS": "SUPINE",
    "VSORRES": "77",
    "VSORRESU": "mmHg",
    "VSSTRESC": "77",
    "VSSTRESN": 77.0,
    "VSSTRESU": "mmHg",
    "VSSTAT": "",
    "VSLOC": "",
    "VSLOBXFL": "",
    "VSREPNUM": 1.0,
    "VISITNUM": 7.0,
    "VISIT": "WEEK 6",
    "EPOCH": "TREATMENT",
    "VSDTC": "2013-01-10",
    "VSDY": 42.0
  },
  {
    "STUDYID": "CDISCPILOT01",
    "DOMAIN": "VS",
    "USUBJID": "CDISC001",
    "VSSEQ": 7.0,
    "VSTESTCD": "DIABP",
    "VSTEST": "Diastolic Blood Pressure",
    "VSPOS": "STANDING",
    "VSORRES": "71",
    "VSORRESU": "mmHg",
    "VSSTRESC": "71",
    "VSSTRESN": 71.0,
    "VSSTRESU": "mmHg",
    "VSSTAT": "",
    "VSLOC": "",
    "VSLOBXFL": "",
    "VSREPNUM": 2.0,
    "VISITNUM": 7.0,
    "VISIT": "WEEK 6",
    "EPOCH": "TREATMENT",
    "VSDTC": "2013-01-10",
    "VSDY": 42.0
  },
  {
    "STUDYID": "CDISCPILOT01",
    "DOMAIN": "VS",
    "USUBJID": "CDISC001",
    "VSSEQ": 8.0,
    "VSTESTCD": "DIABP",
    "VSTEST": "Diastolic Blood Pressure",
    "VSPOS": "STANDING",
    "VSORRES": "69",
    "VSORRESU": "mmHg",
    "VSSTRESC": "69",
    "VSSTRESN": 69.0,
    "VSSTRESU": "mmHg",
    "VSSTAT": "",
    "VSLOC": "",
    "VSLOBXFL": "",
    "VSREPNUM": 3.0,
    "VISITNUM": 7.0,
    "VISIT": "WEEK 6",
    "EPOCH": "TREATMENT",
    "VSDTC": "2013-01-10",
    "VSDY": 42.0
  },
  {
    "STUDYID": "CDISCPILOT01",
    "DOMAIN": "VS",
    "USUBJID": "CDISC001",
    "VSSEQ": 9.0,
    "VSTESTCD": "DIABP",
    "VSTEST": "Diastolic Blood Pressure",
    "VSPOS": "SUPINE",
    "VSORRES": "76",
    "VSORRESU": "mmHg",
    "VSSTRESC": "76",
    "VSSTRESN": 76.0,
    "VSSTRESU": "mmHg",
    "VSSTAT": "",
    "VSLOC": "",
    "VSLOBXFL": "",
    "VSREPNUM": 1.0,
    "VISITNUM": 8.0,
    "VISIT": "WEEK 8",
    "EPOCH": "TREATMENT",
    "VSDTC": "2013-01-23",
    "VSDY": 55.0
  },
  {
    "STUDYID": "CDISCPILOT01",
    "DOMAIN": "VS",
    "USUBJID": "CDISC001",
    "VSSEQ": 10.0,
    "VSTESTCD": "DIABP",
    "VSTEST": "Diastolic Blood Pressure",
    "VSPOS": "STANDING",
    "VSORRES": "52",
    "VSORRESU": "mmHg",
    "VSSTRESC": "52",
    "VSSTRESN": 52.0,
    "VSSTRESU": "mmHg",
    "VSSTAT": "",
    "VSLOC": "",
    "VSLOBXFL": "",
    "VSREPNUM": 2.0,
    "VISITNUM": 8.0,
    "VISIT": "WEEK 8",
    "EPOCH": "TREATMENT",
    "VSDTC": "2013-01-23",
    "VSDY": 55.0
  },
  {
    "STUDYID": "CDISCPILOT01",
    "DOMAIN": "VS",
    "USUBJID": "CDISC001",
    "VSSEQ": 11.0,
    "VSTESTCD": "DIABP",
    "VSTEST": "Diastolic Blood Pressure",
    "VSPOS": "STANDING",
    "VSORRES": "60",
    "VSORRESU": "mmHg",
    "VSSTRESC": "60",
    "VSSTRESN": 60.0,
    "VSSTRESU": "mmHg",
    "VSSTAT": "",
    "VSLOC": "",
    "VSLOBXFL": "",
    "VSREPNUM": 3.0,
    "VISITNUM": 8.0,
    "VISIT": "WEEK 8",
    "EPOCH": "TREATMENT",
    "VSDTC": "2013-01-23",
    "VSDY": 55.0
  },
  {
    "STUDYID": "CDISCPILOT01",
    "DOMAIN": "VS",
    "USUBJID": "CDISC001",
    "VSSEQ": 12.0,
    "VSTESTCD": "DIABP",
    "VSTEST": "Diastolic Blood Pressure",
    "VSPOS": "SUPINE",
    "VSORRES": "68",
    "VSORRESU": "mmHg",
    "VSSTRESC": "68",
    "VSSTRESN": 68.0,
    "VSSTRESU": "mmHg",
    "VSSTAT": "",
    "VSLOC": "",
    "VSLOBXFL": "",
    "VSREPNUM": 1.0,
    "VISITNUM": 201.0,
    "VISIT": "EARLY DISCONTINUATION RETRIEVAL",
    "EPOCH": "TREATMENT",
    "VSDTC": "2013-05-20",
    "VSDY": 172.0
  },
  {
    "STUDYID": "CDISCPILOT01",
    "DOMAIN": "VS",
    "USUBJID": "CDISC001",
    "VSSEQ": 13.0,
    "VSTESTCD": "DIABP",
    "VSTEST": "Diastolic Blood Pressure",
    "VSPOS": "STANDING",
    "VSORRES": "72",
    "VSORRESU": "mmHg",
    "VSSTRESC": "72",
    "VSSTRESN": 72.0,
    "VSSTRESU": "mmHg",
    "VSSTAT": "",
    "VSLOC": "",
    "VSLOBXFL": "",
    "VSREPNUM": 2.0,
    "VISITNUM": 201.0,
    "VISIT": "EARLY DISCONTINUATION RETRIEVAL",
    "EPOCH": "TREATMENT",
    "VSDTC": "2013-05-20",
    "VSDY": 172.0
  },
  {
    "STUDYID": "CDISCPILOT01",
    "DOMAIN": "VS",
    "USUBJID": "CDISC001",
    "VSSEQ": 14.0,
    "VSTESTCD": "DIABP",
    "VSTEST": "Diastolic Blood Pressure",
    "VSPOS": "STANDING",
    "VSORRES": "68",
    "VSORRESU": "mmHg",
    "VSSTRESC": "68",
    "VSSTRESN": 68.0,
    "VSSTRESU": "mmHg",
    "VSSTAT": "",
    "VSLOC": "",
    "VSLOBXFL": "",
    "VSREPNUM": 3.0,
    "VISITNUM": 201.0,
    "VISIT": "EARLY DISCONTINUATION RETRIEVAL",
    "EPOCH": "TREATMENT",
    "VSDTC": "2013-05-20",
    "VSDY": 172.0
  },
  {
    "STUDYID": "CDISCPILOT01",
    "DOMAIN": "VS",
    "USUBJID": "CDISC001",
    "VSSEQ": 15.0,
    "VSTESTCD": "HEIGHT",
    "VSTEST": "Height",
    "VSPOS": "",
    "VSORRES": "71.5",
    "VSORRESU": "in",
    "VSSTRESC": "181.61",
    "VSSTRESN": 181.61,
    "VSSTRESU": "cm",
    "VSSTAT": "",
    "VSLOC": "",
    "VSLOBXFL": "",
    "VSREPNUM": "",
    "VISITNUM": 1.0,
    "VISIT": "SCREENING 1",
    "EPOCH": "SCREENING",
    "VSDTC": "2012-11-23",
    "VSDY": -7.0
  },
  {
    "STUDYID": "CDISCPILOT01",
    "DOMAIN": "VS",
    "USUBJID": "CDISC001",
    "VSSEQ": 16.0,
    "VSTESTCD": "PULSE",
    "VSTEST": "Pulse Rate",
    "VSPOS": "STANDING",
    "VSORRES": "51",
    "VSORRESU": "beats/min",
    "VSSTRESC": "51",
    "VSSTRESN": 51.0,
    "VSSTRESU": "beats/min",
    "VSSTAT": "",
    "VSLOC": "",
    "VSLOBXFL": "",
    "VSREPNUM": "",
    "VISITNUM": 1.0,
    "VISIT": "SCREENING 1",
    "EPOCH": "SCREENING",
    "VSDTC": "2012-11-23",
    "VSDY": -7.0
  },
  {
    "STUDYID": "CDISCPILOT01",
    "DOMAIN": "VS",
    "USUBJID": "CDISC001",
    "VSSEQ": 17.0,
    "VSTESTCD": "PULSE",
    "VSTEST": "Pulse Rate",
    "VSPOS": "STANDING",
    "VSORRES": "50",
    "VSORRESU": "beats/min",
    "VSSTRESC": "50",
    "VSSTRESN": 50.0,
    "VSSTRESU": "beats/min",
    "VSSTAT": "",
    "VSLOC": "",
    "VSLOBXFL": "",
    "VSREPNUM": "",
    "VISITNUM": 2.0,
    "VISIT": "SCREENING 2",
    "EPOCH": "SCREENING",
    "VSDTC": "2012-11-28",
    "VSDY": -2.0
  },
  {
    "STUDYID": "CDISCPILOT01",
    "DOMAIN": "VS",
    "USUBJID": "CDISC001",
    "VSSEQ": 18.0,
    "VSTESTCD": "PULSE",
    "VSTEST": "Pulse Rate",
    "VSPOS": "STANDING",
    "VSORRES": "50",
    "VSORRESU": "beats/min",
    "VSSTRESC": "50",
    "VSSTRESN": 50.0,
    "VSSTRESU": "beats/min",
    "VSSTAT": "",
    "VSLOC": "",
    "VSLOBXFL": "Y",
    "VSREPNUM": "",
    "VISITNUM": 3.0,
    "VISIT": "BASELINE",
    "EPOCH": "SCREENING",
    "VSDTC": "2012-11-30",
    "VSDY": 1.0
  },
  {
    "STUDYID": "CDISCPILOT01",
    "DOMAIN": "VS",
    "USUBJID": "CDISC001",
    "VSSEQ": 19.0,
    "VSTESTCD": "PULSE",
    "VSTEST": "Pulse Rate",
    "VSPOS": "STANDING",
    "VSORRES": "53",
    "VSORRESU": "beats/min",
    "VSSTRESC": "53",
    "VSSTRESN": 53.0,
    "VSSTRESU": "beats/min",
    "VSSTAT": "",
    "VSLOC": "",
    "VSLOBXFL": "",
    "VSREPNUM": "",
    "VISITNUM": 4.0,
    "VISIT": "WEEK 2",
    "EPOCH": "TREATMENT",
    "VSDTC": "2012-12-13",
    "VSDY": 14.0
  },
  {
    "STUDYID": "CDISCPILOT01",
    "DOMAIN": "VS",
    "USUBJID": "CDISC001",
    "VSSEQ": 20.0,
    "VSTESTCD": "PULSE",
    "VSTEST": "Pulse Rate",
    "VSPOS": "STANDING",
    "VSORRES": "51",
    "VSORRESU": "beats/min",
    "VSSTRESC": "51",
    "VSSTRESN": 51.0,
    "VSSTRESU": "beats/min",
    "VSSTAT": "",
    "VSLOC": "",
    "VSLOBXFL": "",
    "VSREPNUM": "",
    "VISITNUM": 5.0,
    "VISIT": "WEEK 4",
    "EPOCH": "TREATMENT",
    "VSDTC": "2012-12-26",
    "VSDY": 27.0
  },
  {
    "STUDYID": "CDISCPILOT01",
    "DOMAIN": "VS",
    "USUBJID": "CDISC001",
    "VSSEQ": 21.0,
    "VSTESTCD": "PULSE",
    "VSTEST": "Pulse Rate",
    "VSPOS": "SUPINE",
    "VSORRES": "52",
    "VSORRESU": "beats/min",
    "VSSTRESC": "52",
    "VSSTRESN": 52.0,
    "VSSTRESU": "beats/min",
    "VSSTAT": "",
    "VSLOC": "",
    "VSLOBXFL": "",
    "VSREPNUM": 1.0,
    "VISITNUM": 7.0,
    "VISIT": "WEEK 6",
    "EPOCH": "TREATMENT",
    "VSDTC": "2013-01-10",
    "VSDY": 42.0
  },
  {
    "STUDYID": "CDISCPILOT01",
    "DOMAIN": "VS",
    "USUBJID": "CDISC001",
    "VSSEQ": 22.0,
    "VSTESTCD": "PULSE",
    "VSTEST": "Pulse Rate",
    "VSPOS": "STANDING",
    "VSORRES": "62",
    "VSORRESU": "beats/min",
    "VSSTRESC": "62",
    "VSSTRESN": 62.0,
    "VSSTRESU": "beats/min",
    "VSSTAT": "",
    "VSLOC": "",
    "VSLOBXFL": "",
    "VSREPNUM": 2.0,
    "VISITNUM": 7.0,
    "VISIT": "WEEK 6",
    "EPOCH": "TREATMENT",
    "VSDTC": "2013-01-10",
    "VSDY": 42.0
  },
  {
    "STUDYID": "CDISCPILOT01",
    "DOMAIN": "VS",
    "USUBJID": "CDISC001",
    "VSSEQ": 23.0,
    "VSTESTCD": "PULSE",
    "VSTEST": "Pulse Rate",
    "VSPOS": "STANDING",
    "VSORRES": "62",
    "VSORRESU": "beats/min",
    "VSSTRESC": "62",
    "VSSTRESN": 62.0,
    "VSSTRESU": "beats/min",
    "VSSTAT": "",
    "VSLOC": "",
    "VSLOBXFL": "",
    "VSREPNUM": 3.0,
    "VISITNUM": 7.0,
    "VISIT": "WEEK 6",
    "EPOCH": "TREATMENT",
    "VSDTC": "2013-01-10",
    "VSDY": 42.0
  },
  {
    "STUDYID": "CDISCPILOT01",
    "DOMAIN": "VS",
    "USUBJID": "CDISC001",
    "VSSEQ": 24.0,
    "VSTESTCD": "PULSE",
    "VSTEST": "Pulse Rate",
    "VSPOS": "SUPINE",
    "VSORRES": "50",
    "VSORRESU": "beats/min",
    "VSSTRESC": "50",
    "VSSTRESN": 50.0,
    "VSSTRESU": "beats/min",
    "VSSTAT": "",
    "VSLOC": "",
    "VSLOBXFL": "",
    "VSREPNUM": 1.0,
    "VISITNUM": 8.0,
    "VISIT": "WEEK 8",
    "EPOCH": "TREATMENT",
    "VSDTC": "2013-01-23",
    "VSDY": 55.0
  },
  {
    "STUDYID": "CDISCPILOT01",
    "DOMAIN": "VS",
    "USUBJID": "CDISC001",
    "VSSEQ": 25.0,
    "VSTESTCD": "PULSE",
    "VSTEST": "Pulse Rate",
    "VSPOS": "STANDING",
    "VSORRES": "52",
    "VSORRESU": "beats/min",
    "VSSTRESC": "52",
    "VSSTRESN": 52.0,
    "VSSTRESU": "beats/min",
    "VSSTAT": "",
    "VSLOC": "",
    "VSLOBXFL": "",
    "VSREPNUM": 2.0,
    "VISITNUM": 8.0,
    "VISIT": "WEEK 8",
    "EPOCH": "TREATMENT",
    "VSDTC": "2013-01-23",
    "VSDY": 55.0
  },
  {
    "STUDYID": "CDISCPILOT01",
    "DOMAIN": "VS",
    "USUBJID": "CDISC001",
    "VSSEQ": 26.0,
    "VSTESTCD": "PULSE",
    "VSTEST": "Pulse Rate",
    "VSPOS": "STANDING",
    "VSORRES": "54",
    "VSORRESU": "beats/min",
    "VSSTRESC": "54",
    "VSSTRESN": 54.0,
    "VSSTRESU": "beats/min",
    "VSSTAT": "",
    "VSLOC": "",
    "VSLOBXFL": "",
    "VSREPNUM": 3.0,
    "VISITNUM": 8.0,
    "VISIT": "WEEK 8",
    "EPOCH": "TREATMENT",
    "VSDTC": "2013-01-23",
    "VSDY": 55.0
  },
  {
    "STUDYID": "CDISCPILOT01",
    "DOMAIN": "VS",
    "USUBJID": "CDISC001",
    "VSSEQ": 27.0,
    "VSTESTCD": "PULSE",
    "VSTEST": "Pulse Rate",
    "VSPOS": "SUPINE",
    "VSORRES": "79",
    "VSORRESU": "beats/min",
    "VSSTRESC": "79",
    "VSSTRESN": 79.0,
    "VSSTRESU": "beats/min",
    "VSSTAT": "",
    "VSLOC": "",
    "VSLOBXFL": "",
    "VSREPNUM": 1.0,
    "VISITNUM": 201.0,
    "VISIT": "EARLY DISCONTINUATION RETRIEVAL",
    "EPOCH": "TREATMENT",
    "VSDTC": "2013-05-20",
    "VSDY": 172.0
  },
  {
    "STUDYID": "CDISCPILOT01",
    "DOMAIN": "VS",
    "USUBJID": "CDISC001",
    "VSSEQ": 28.0,
    "VSTESTCD": "PULSE",
    "VSTEST": "Pulse Rate",
    "VSPOS": "STANDING",
    "VSORRES": "98",
    "VSORRESU": "beats/min",
    "VSSTRESC": "98",
    "VSSTRESN": 98.0,
    "VSSTRESU": "beats/min",
    "VSSTAT": "",
    "VSLOC": "",
    "VSLOBXFL": "",
    "VSREPNUM": 2.0,
    "VISITNUM": 201.0,
    "VISIT": "EARLY DISCONTINUATION RETRIEVAL",
    "EPOCH": "TREATMENT",
    "VSDTC": "2013-05-20",
    "VSDY": 172.0
  },
  {
    "STUDYID": "CDISCPILOT01",
    "DOMAIN": "VS",
    "USUBJID": "CDISC001",
    "VSSEQ": 29.0,
    "VSTESTCD": "PULSE",
    "VSTEST": "Pulse Rate",
    "VSPOS": "STANDING",
    "VSORRES": "94",
    "VSORRESU": "beats/min",
    "VSSTRESC": "94",
    "VSSTRESN": 94.0,
    "VSSTRESU": "beats/min",
    "VSSTAT": "",
    "VSLOC": "",
    "VSLOBXFL": "",
    "VSREPNUM": 3.0,
    "VISITNUM": 201.0,
    "VISIT": "EARLY DISCONTINUATION RETRIEVAL",
    "EPOCH": "TREATMENT",
    "VSDTC": "2013-05-20",
    "VSDY": 172.0
  },
  {
    "STUDYID": "CDISCPILOT01",
    "DOMAIN": "VS",
    "USUBJID": "CDISC001",
    "VSSEQ": 30.0,
    "VSTESTCD": "SYSBP",
    "VSTEST": "Systolic Blood Pressure",
    "VSPOS": "STANDING",
    "VSORRES": "137",
    "VSORRESU": "mmHg",
    "VSSTRESC": "137",
    "VSSTRESN": 137.0,
    "VSSTRESU": "mmHg",
    "VSSTAT": "",
    "VSLOC": "",
    "VSLOBXFL": "",
    "VSREPNUM": "",
    "VISITNUM": 1.0,
    "VISIT": "SCREENING 1",
    "EPOCH": "SCREENING",
    "VSDTC": "2012-11-23",
    "VSDY": -7.0
  },
  {
    "STUDYID": "CDISCPILOT01",
    "DOMAIN": "VS",
    "USUBJID": "CDISC001",
    "VSSEQ": 31.0,
    "VSTESTCD": "SYSBP",
    "VSTEST": "Systolic Blood Pressure",
    "VSPOS": "STANDING",
    "VSORRES": "137",
    "VSORRESU": "mmHg",
    "VSSTRESC": "137",
    "VSSTRESN": 137.0,
    "VSSTRESU": "mmHg",
    "VSSTAT": "",
    "VSLOC": "",
    "VSLOBXFL": "",
    "VSREPNUM": "",
    "VISITNUM": 2.0,
    "VISIT": "SCREENING 2",
    "EPOCH": "SCREENING",
    "VSDTC": "2012-11-28",
    "VSDY": -2.0
  },
  {
    "STUDYID": "CDISCPILOT01",
    "DOMAIN": "VS",
    "USUBJID": "CDISC001",
    "VSSEQ": 32.0,
    "VSTESTCD": "SYSBP",
    "VSTEST": "Systolic Blood Pressure",
    "VSPOS": "STANDING",
    "VSORRES": "130",
    "VSORRESU": "mmHg",
    "VSSTRESC": "130",
    "VSSTRESN": 130.0,
    "VSSTRESU": "mmHg",
    "VSSTAT": "",
    "VSLOC": "",
    "VSLOBXFL": "Y",
    "VSREPNUM": "",
    "VISITNUM": 3.0,
    "VISIT": "BASELINE",
    "EPOCH": "SCREENING",
    "VSDTC": "2012-11-30",
    "VSDY": 1.0
  },
  {
    "STUDYID": "CDISCPILOT01",
    "DOMAIN": "VS",
    "USUBJID": "CDISC001",
    "VSSEQ": 33.0,
    "VSTESTCD": "SYSBP",
    "VSTEST": "Systolic Blood Pressure",
    "VSPOS": "STANDING",
    "VSORRES": "122",
    "VSORRESU": "mmHg",
    "VSSTRESC": "122",
    "VSSTRESN": 122.0,
    "VSSTRESU": "mmHg",
    "VSSTAT": "",
    "VSLOC": "",
    "VSLOBXFL": "",
    "VSREPNUM": "",
    "VISITNUM": 4.0,
    "VISIT": "WEEK 2",
    "EPOCH": "TREATMENT",
    "VSDTC": "2012-12-13",
    "VSDY": 14.0
  },
  {
    "STUDYID": "CDISCPILOT01",
    "DOMAIN": "VS",
    "USUBJID": "CDISC001",
    "VSSEQ": 34.0,
    "VSTESTCD": "SYSBP",
    "VSTEST": "Systolic Blood Pressure",
    "VSPOS": "STANDING",
    "VSORRES": "115",
    "VSORRESU": "mmHg",
    "VSSTRESC": "115",
    "VSSTRESN": 115.0,
    "VSSTRESU": "mmHg",
    "VSSTAT": "",
    "VSLOC": "",
    "VSLOBXFL": "",
    "VSREPNUM": "",
    "VISITNUM": 5.0,
    "VISIT": "WEEK 4",
    "EPOCH": "TREATMENT",
    "VSDTC": "2012-12-26",
    "VSDY": 27.0
  },
  {
    "STUDYID": "CDISCPILOT01",
    "DOMAIN": "VS",
    "USUBJID": "CDISC001",
    "VSSEQ": 35.0,
    "VSTESTCD": "SYSBP",
    "VSTEST": "Systolic Blood Pressure",
    "VSPOS": "SUPINE",
    "VSORRES": "131",
    "VSORRESU": "mmHg",
    "VSSTRESC": "131",
    "VSSTRESN": 131.0,
    "VSSTRESU": "mmHg",
    "VSSTAT": "",
    "VSLOC": "",
    "VSLOBXFL": "",
    "VSREPNUM": 1.0,
    "VISITNUM": 7.0,
    "VISIT": "WEEK 6",
    "EPOCH": "TREATMENT",
    "VSDTC": "2013-01-10",
    "VSDY": 42.0
  },
  {
    "STUDYID": "CDISCPILOT01",
    "DOMAIN": "VS",
    "USUBJID": "CDISC001",
    "VSSEQ": 36.0,
    "VSTESTCD": "SYSBP",
    "VSTEST": "Systolic Blood Pressure",
    "VSPOS": "STANDING",
    "VSORRES": "107",
    "VSORRESU": "mmHg",
    "VSSTRESC": "107",
    "VSSTRESN": 107.0,
    "VSSTRESU": "mmHg",
    "VSSTAT": "",
    "VSLOC": "",
    "VSLOBXFL": "",
    "VSREPNUM": 2.0,
    "VISITNUM": 7.0,
    "VISIT": "WEEK 6",
    "EPOCH": "TREATMENT",
    "VSDTC": "2013-01-10",
    "VSDY": 42.0
  },
  {
    "STUDYID": "CDISCPILOT01",
    "DOMAIN": "VS",
    "USUBJID": "CDISC001",
    "VSSEQ": 37.0,
    "VSTESTCD": "SYSBP",
    "VSTEST": "Systolic Blood Pressure",
    "VSPOS": "STANDING",
    "VSORRES": "104",
    "VSORRESU": "mmHg",
    "VSSTRESC": "104",
    "VSSTRESN": 104.0,
    "VSSTRESU": "mmHg",
    "VSSTAT": "",
    "VSLOC": "",
    "VSLOBXFL": "",
    "VSREPNUM": 3.0,
    "VISITNUM": 7.0,
    "VISIT": "WEEK 6",
    "EPOCH": "TREATMENT",
    "VSDTC": "2013-01-10",
    "VSDY": 42.0
  },
  {
    "STUDYID": "CDISCPILOT01",
    "DOMAIN": "VS",
    "USUBJID": "CDISC001",
    "VSSEQ": 38.0,
    "VSTESTCD": "SYSBP",
    "VSTEST": "Systolic Blood Pressure",
    "VSPOS": "SUPINE",
    "VSORRES": "123",
    "VSORRESU": "mmHg",
    "VSSTRESC": "123",
    "VSSTRESN": 123.0,
    "VSSTRESU": "mmHg",
    "VSSTAT": "",
    "VSLOC": "",
    "VSLOBXFL": "",
    "VSREPNUM": 1.0,
    "VISITNUM": 8.0,
    "VISIT": "WEEK 8",
    "EPOCH": "TREATMENT",
    "VSDTC": "2013-01-23",
    "VSDY": 55.0
  },
  {
    "STUDYID": "CDISCPILOT01",
    "DOMAIN": "VS",
    "USUBJID": "CDISC001",
    "VSSEQ": 39.0,
    "VSTESTCD": "SYSBP",
    "VSTEST": "Systolic Blood Pressure",
    "VSPOS": "STANDING",
    "VSORRES": "113",
    "VSORRESU": "mmHg",
    "VSSTRESC": "113",
    "VSSTRESN": 113.0,
    "VSSTRESU": "mmHg",
    "VSSTAT": "",
    "VSLOC": "",
    "VSLOBXFL": "",
    "VSREPNUM": 2.0,
    "VISITNUM": 8.0,
    "VISIT": "WEEK 8",
    "EPOCH": "TREATMENT",
    "VSDTC": "2013-01-23",
    "VSDY": 55.0
  },
  {
    "STUDYID": "CDISCPILOT01",
    "DOMAIN": "VS",
    "USUBJID": "CDISC001",
    "VSSEQ": 40.0,
    "VSTESTCD": "SYSBP",
    "VSTEST": "Systolic Blood Pressure",
    "VSPOS": "STANDING",
    "VSORRES": "98",
    "VSORRESU": "mmHg",
    "VSSTRESC": "98",
    "VSSTRESN": 98.0,
    "VSSTRESU": "mmHg",
    "VSSTAT": "",
    "VSLOC": "",
    "VSLOBXFL": "",
    "VSREPNUM": 3.0,
    "VISITNUM": 8.0,
    "VISIT": "WEEK 8",
    "EPOCH": "TREATMENT",
    "VSDTC": "2013-01-23",
    "VSDY": 55.0
  },
  {
    "STUDYID": "CDISCPILOT01",
    "DOMAIN": "VS",
    "USUBJID": "CDISC001",
    "VSSEQ": 41.0,
    "VSTESTCD": "SYSBP",
    "VSTEST": "Systolic Blood Pressure",
    "VSPOS": "SUPINE",
    "VSORRES": "99",
    "VSORRESU": "mmHg",
    "VSSTRESC": "99",
    "VSSTRESN": 99.0,
    "VSSTRESU": "mmHg",
    "VSSTAT": "",
    "VSLOC": "",
    "VSLOBXFL": "",
    "VSREPNUM": 1.0,
    "VISITNUM": 201.0,
    "VISIT": "EARLY DISCONTINUATION RETRIEVAL",
    "EPOCH": "TREATMENT",
    "VSDTC": "2013-05-20",
    "VSDY": 172.0
  },
  {
    "STUDYID": "CDISCPILOT01",
    "DOMAIN": "VS",
    "USUBJID": "CDISC001",
    "VSSEQ": 42.0,
    "VSTESTCD": "SYSBP",
    "VSTEST": "Systolic Blood Pressure",
    "VSPOS": "STANDING",
    "VSORRES": "99",
    "VSORRESU": "mmHg",
    "VSSTRESC": "99",
    "VSSTRESN": 99.0,
    "VSSTRESU": "mmHg",
    "VSSTAT": "",
    "VSLOC": "",
    "VSLOBXFL": "",
    "VSREPNUM": 2.0,
    "VISITNUM": 201.0,
    "VISIT": "EARLY DISCONTINUATION RETRIEVAL",
    "EPOCH": "TREATMENT",
    "VSDTC": "2013-05-20",
    "VSDY": 172.0
  },
  {
    "STUDYID": "CDISCPILOT01",
    "DOMAIN": "VS",
    "USUBJID": "CDISC001",
    "VSSEQ": 43.0,
    "VSTESTCD": "SYSBP",
    "VSTEST": "Systolic Blood Pressure",
    "VSPOS": "STANDING",
    "VSORRES": "99",
    "VSORRESU": "mmHg",
    "VSSTRESC": "99",
    "VSSTRESN": 99.0,
    "VSSTRESU": "mmHg",
    "VSSTAT": "",
    "VSLOC": "",
    "VSLOBXFL": "",
    "VSREPNUM": 3.0,
    "VISITNUM": 201.0,
    "VISIT": "EARLY DISCONTINUATION RETRIEVAL",
    "EPOCH": "TREATMENT",
    "VSDTC": "2013-05-20",
    "VSDY": 172.0
  },
  {
    "STUDYID": "CDISCPILOT01",
    "DOMAIN": "VS",
    "USUBJID": "CDISC001",
    "VSSEQ": 44.0,
    "VSTESTCD": "TEMP",
    "VSTEST": "Temperature",
    "VSPOS": "",
    "VSORRES": "97.4",
    "VSORRESU": "F",
    "VSSTRESC": "36.33",
    "VSSTRESN": 36.33,
    "VSSTRESU": "C",
    "VSSTAT": "",
    "VSLOC": "ORAL CAVITY",
    "VSLOBXFL": "",
    "VSREPNUM": "",
    "VISITNUM": 1.0,
    "VISIT": "SCREENING 1",
    "EPOCH": "SCREENING",
    "VSDTC": "2012-11-23",
    "VSDY": -7.0
  },
  {
    "STUDYID": "CDISCPILOT01",
    "DOMAIN": "VS",
    "USUBJID": "CDISC001",
    "VSSEQ": 45.0,
    "VSTESTCD": "TEMP",
    "VSTEST": "Temperature",
    "VSPOS": "",
    "VSORRES": "97.2",
    "VSORRESU": "F",
    "VSSTRESC": "36.22",
    "VSSTRESN": 36.22,
    "VSSTRESU": "C",
    "VSSTAT": "",
    "VSLOC": "ORAL CAVITY",
    "VSLOBXFL": "",
    "VSREPNUM": "",
    "VISITNUM": 2.0,
    "VISIT": "SCREENING 2",
    "EPOCH": "SCREENING",
    "VSDTC": "2012-11-28",
    "VSDY": -2.0
  },
  {
    "STUDYID": "CDISCPILOT01",
    "DOMAIN": "VS",
    "USUBJID": "CDISC001",
    "VSSEQ": 46.0,
    "VSTESTCD": "TEMP",
    "VSTEST": "Temperature",
    "VSPOS": "",
    "VSORRES": "98.0",
    "VSORRESU": "F",
    "VSSTRESC": "36.67",
    "VSSTRESN": 36.67,
    "VSSTRESU": "C",
    "VSSTAT": "",
    "VSLOC": "ORAL CAVITY",
    "VSLOBXFL": "Y",
    "VSREPNUM": "",
    "VISITNUM": 3.0,
    "VISIT": "BASELINE",
    "EPOCH": "SCREENING",
    "VSDTC": "2012-11-30",
    "VSDY": 1.0
  },
  {
    "STUDYID": "CDISCPILOT01",
    "DOMAIN": "VS",
    "USUBJID": "CDISC001",
    "VSSEQ": 47.0,
    "VSTESTCD": "TEMP",
    "VSTEST": "Temperature",
    "VSPOS": "",
    "VSORRES": "98.0",
    "VSORRESU": "F",
    "VSSTRESC": "36.67",
    "VSSTRESN": 36.67,
    "VSSTRESU": "C",
    "VSSTAT": "",
    "VSLOC": "ORAL CAVITY",
    "VSLOBXFL": "",
    "VSREPNUM": "",
    "VISITNUM": 4.0,
    "VISIT": "WEEK 2",
    "EPOCH": "TREATMENT",
    "VSDTC": "2012-12-13",
    "VSDY": 14.0
  },
  {
    "STUDYID": "CDISCPILOT01",
    "DOMAIN": "VS",
    "USUBJID": "CDISC001",
    "VSSEQ": 48.0,
    "VSTESTCD": "TEMP",
    "VSTEST": "Temperature",
    "VSPOS": "",
    "VSORRES": "97.7",
    "VSORRESU": "F",
    "VSSTRESC": "36.5",
    "VSSTRESN": 36.5,
    "VSSTRESU": "C",
    "VSSTAT": "",
    "VSLOC": "ORAL CAVITY",
    "VSLOBXFL": "",
    "VSREPNUM": "",
    "VISITNUM": 5.0,
    "VISIT": "WEEK 4",
    "EPOCH": "TREATMENT",
    "VSDTC": "2012-12-26",
    "VSDY": 27.0
  },
  {
    "STUDYID": "CDISCPILOT01",
    "DOMAIN": "VS",
    "USUBJID": "CDISC001",
    "VSSEQ": 49.0,
    "VSTESTCD": "TEMP",
    "VSTEST": "Temperature",
    "VSPOS": "",
    "VSORRES": "97.6",
    "VSORRESU": "F",
    "VSSTRESC": "36.44",
    "VSSTRESN": 36.44,
    "VSSTRESU": "C",
    "VSSTAT": "",
    "VSLOC": "ORAL CAVITY",
    "VSLOBXFL": "",
    "VSREPNUM": "",
    "VISITNUM": 7.0,
    "VISIT": "WEEK 6",
    "EPOCH": "TREATMENT",
    "VSDTC": "2013-01-10",
    "VSDY": 42.0
  },
  {
    "STUDYID": "CDISCPILOT01",
    "DOMAIN": "VS",
    "USUBJID": "CDISC001",
    "VSSEQ": 50.0,
    "VSTESTCD": "TEMP",
    "VSTEST": "Temperature",
    "VSPOS": "",
    "VSORRES": "97.6",
    "VSORRESU": "F",
    "VSSTRESC": "36.44",
    "VSSTRESN": 36.44,
    "VSSTRESU": "C",
    "VSSTAT": "",
    "VSLOC": "ORAL CAVITY",
    "VSLOBXFL": "",
    "VSREPNUM": "",
    "VISITNUM": 8.0,
    "VISIT": "WEEK 8",
    "EPOCH": "TREATMENT",
    "VSDTC": "2013-01-23",
    "VSDY": 55.0
  },
  {
    "STUDYID": "CDISCPILOT01",
    "DOMAIN": "VS",
    "USUBJID": "CDISC001",
    "VSSEQ": 51.0,
    "VSTESTCD": "TEMP",
    "VSTEST": "Temperature",
    "VSPOS": "",
    "VSORRES": "97.4",
    "VSORRESU": "F",
    "VSSTRESC": "36.33",
    "VSSTRESN": 36.33,
    "VSSTRESU": "C",
    "VSSTAT": "",
    "VSLOC": "ORAL CAVITY",
    "VSLOBXFL": "",
    "VSREPNUM": "",
    "VISITNUM": 201.0,
    "VISIT": "EARLY DISCONTINUATION RETRIEVAL",
    "EPOCH": "TREATMENT",
    "VSDTC": "2013-05-20",
    "VSDY": 172.0
  },
  {
    "STUDYID": "CDISCPILOT01",
    "DOMAIN": "VS",
    "USUBJID": "CDISC001",
    "VSSEQ": 52.0,
    "VSTESTCD": "WEIGHT",
    "VSTEST": "Weight",
    "VSPOS": "",
    "VSORRES": "173.5",
    "VSORRESU": "LB",
    "VSSTRESC": "78.7",
    "VSSTRESN": 78.7,
    "VSSTRESU": "kg",
    "VSSTAT": "",
    "VSLOC": "",
    "VSLOBXFL": "",
    "VSREPNUM": "",
    "VISITNUM": 1.0,
    "VISIT": "SCREENING 1",
    "EPOCH": "SCREENING",
    "VSDTC": "2012-11-23",
    "VSDY": -7.0
  },
  {
    "STUDYID": "CDISCPILOT01",
    "DOMAIN": "VS",
    "USUBJID": "CDISC001",
    "VSSEQ": 53.0,
    "VSTESTCD": "WEIGHT",
    "VSTEST": "Weight",
    "VSPOS": "",
    "VSORRES": "174.0",
    "VSORRESU": "LB",
    "VSSTRESC": "78.93",
    "VSSTRESN": 78.93,
    "VSSTRESU": "kg",
    "VSSTAT": "",
    "VSLOC": "",
    "VSLOBXFL": "Y",
    "VSREPNUM": "",
    "VISITNUM": 3.0,
    "VISIT": "BASELINE",
    "EPOCH": "SCREENING",
    "VSDTC": "2012-11-30",
    "VSDY": 1.0
  },
  {
    "STUDYID": "CDISCPILOT01",
    "DOMAIN": "VS",
    "USUBJID": "CDISC001",
    "VSSEQ": 54.0,
    "VSTESTCD": "WEIGHT",
    "VSTEST": "Weight",
    "VSPOS": "",
    "VSORRES": "174.0",
    "VSORRESU": "LB",
    "VSSTRESC": "78.93",
    "VSSTRESN": 78.93,
    "VSSTRESU": "kg",
    "VSSTAT": "",
    "VSLOC": "",
    "VSLOBXFL": "",
    "VSREPNUM": "",
    "VISITNUM": 4.0,
    "VISIT": "WEEK 2",
    "EPOCH": "TREATMENT",
    "VSDTC": "2012-12-13",
    "VSDY": 14.0
  },
  {
    "STUDYID": "CDISCPILOT01",
    "DOMAIN": "VS",
    "USUBJID": "CDISC001",
    "VSSEQ": 55.0,
    "VSTESTCD": "WEIGHT",
    "VSTEST": "Weight",
    "VSPOS": "",
    "VSORRES": "173.0",
    "VSORRESU": "LB",
    "VSSTRESC": "78.47",
    "VSSTRESN": 78.47,
    "VSSTRESU": "kg",
    "VSSTAT": "",
    "VSLOC": "",
    "VSLOBXFL": "",
    "VSREPNUM": "",
    "VISITNUM": 5.0,
    "VISIT": "WEEK 4",
    "EPOCH": "TREATMENT",
    "VSDTC": "2012-12-26",
    "VSDY": 27.0
  },
  {
    "STUDYID": "CDISCPILOT01",
    "DOMAIN": "VS",
    "USUBJID": "CDISC001",
    "VSSEQ": 56.0,
    "VSTESTCD": "WEIGHT",
    "VSTEST": "Weight",
    "VSPOS": "",
    "VSORRES": "173.0",
    "VSORRESU": "LB",
    "VSSTRESC": "78.47",
    "VSSTRESN": 78.47,
    "VSSTRESU": "kg",
    "VSSTAT": "",
    "VSLOC": "",
    "VSLOBXFL": "",
    "VSREPNUM": "",
    "VISITNUM": 7.0,
    "VISIT": "WEEK 6",
    "EPOCH": "TREATMENT",
    "VSDTC": "2013-01-10",
    "VSDY": 42.0
  },
  {
    "STUDYID": "CDISCPILOT01",
    "DOMAIN": "VS",
    "USUBJID": "CDISC001",
    "VSSEQ": 57.0,
    "VSTESTCD": "WEIGHT",
    "VSTEST": "Weight",
    "VSPOS": "",
    "VSORRES": "173.0",
    "VSORRESU": "LB",
    "VSSTRESC": "78.47",
    "VSSTRESN": 78.47,
    "VSSTRESU": "kg",
    "VSSTAT": "",
    "VSLOC": "",
    "VSLOBXFL": "",
    "VSREPNUM": "",
    "VISITNUM": 8.0,
    "VISIT": "WEEK 8",
    "EPOCH": "TREATMENT",
    "VSDTC": "2013-01-23",
    "VSDY": 55.0
  },
  {
    "STUDYID": "CDISCPILOT01",
    "DOMAIN": "VS",
    "USUBJID": "CDISC002",
    "VSSEQ": 1.0,
    "VSTESTCD": "DIABP",
    "VSTEST": "Diastolic Blood Pressure",
    "VSPOS": "STANDING",
    "VSORRES": "60",
    "VSORRESU": "mmHg",
    "VSSTRESC": "60",
    "VSSTRESN": 60.0,
    "VSSTRESU": "mmHg",
    "VSSTAT": "",
    "VSLOC": "",
    "VSLOBXFL": "",
    "VSREPNUM": "",
    "VISITNUM": 1.0,
    "VISIT": "SCREENING 1",
    "EPOCH": "SCREENING",
    "VSDTC": "2012-10-30",
    "VSDY": -16.0
  },
  {
    "STUDYID": "CDISCPILOT01",
    "DOMAIN": "VS",
    "USUBJID": "CDISC002",
    "VSSEQ": 2.0,
    "VSTESTCD": "DIABP",
    "VSTEST": "Diastolic Blood Pressure",
    "VSPOS": "STANDING",
    "VSORRES": "64",
    "VSORRESU": "mmHg",
    "VSSTRESC": "64",
    "VSSTRESN": 64.0,
    "VSSTRESU": "mmHg",
    "VSSTAT": "",
    "VSLOC": "",
    "VSLOBXFL": "",
    "VSREPNUM": "",
    "VISITNUM": 2.0,
    "VISIT": "SCREENING 2",
    "EPOCH": "SCREENING",
    "VSDTC": "2012-11-14",
    "VSDY": -1.0
  },
  {
    "STUDYID": "CDISCPILOT01",
    "DOMAIN": "VS",
    "USUBJID": "CDISC002",
    "VSSEQ": 3.0,
    "VSTESTCD": "DIABP",
    "VSTEST": "Diastolic Blood Pressure",
    "VSPOS": "STANDING",
    "VSORRES": "64",
    "VSORRESU": "mmHg",
    "VSSTRESC": "64",
    "VSSTRESN": 64.0,
    "VSSTRESU": "mmHg",
    "VSSTAT": "",
    "VSLOC": "",
    "VSLOBXFL": "Y",
    "VSREPNUM": "",
    "VISITNUM": 3.0,
    "VISIT": "BASELINE",
    "EPOCH": "SCREENING",
    "VSDTC": "2012-11-15",
    "VSDY": 1.0
  },
  {
    "STUDYID": "CDISCPILOT01",
    "DOMAIN": "VS",
    "USUBJID": "CDISC002",
    "VSSEQ": 4.0,
    "VSTESTCD": "DIABP",
    "VSTEST": "Diastolic Blood Pressure",
    "VSPOS": "STANDING",
    "VSORRES": "58",
    "VSORRESU": "mmHg",
    "VSSTRESC": "58",
    "VSSTRESN": 58.0,
    "VSSTRESU": "mmHg",
    "VSSTAT": "",
    "VSLOC": "",
    "VSLOBXFL": "",
    "VSREPNUM": "",
    "VISITNUM": 4.0,
    "VISIT": "WEEK 2",
    "EPOCH": "TREATMENT",
    "VSDTC": "2012-11-28",
    "VSDY": 14.0
  },
  {
    "STUDYID": "CDISCPILOT01",
    "DOMAIN": "VS",
    "USUBJID": "CDISC002",
    "VSSEQ": 5.0,
    "VSTESTCD": "DIABP",
    "VSTEST": "Diastolic Blood Pressure",
    "VSPOS": "STANDING",
    "VSORRES": "55",
    "VSORRESU": "mmHg",
    "VSSTRESC": "55",
    "VSSTRESN": 55.0,
    "VSSTRESU": "mmHg",
    "VSSTAT": "",
    "VSLOC": "",
    "VSLOBXFL": "",
    "VSREPNUM": "",
    "VISITNUM": 5.0,
    "VISIT": "WEEK 4",
    "EPOCH": "TREATMENT",
    "VSDTC": "2012-12-11",
    "VSDY": 27.0
  },
  {
    "STUDYID": "CDISCPILOT01",
    "DOMAIN": "VS",
    "USUBJID": "CDISC002",
    "VSSEQ": 6.0,
    "VSTESTCD": "DIABP",
    "VSTEST": "Diastolic Blood Pressure",
    "VSPOS": "STANDING",
    "VSORRES": "60",
    "VSORRESU": "mmHg",
    "VSSTRESC": "60",
    "VSSTRESN": 60.0,
    "VSSTRESU": "mmHg",
    "VSSTAT": "",
    "VSLOC": "",
    "VSLOBXFL": "",
    "VSREPNUM": "",
    "VISITNUM": 7.0,
    "VISIT": "WEEK 6",
    "EPOCH": "TREATMENT",
    "VSDTC": "2012-12-25",
    "VSDY": 41.0
  },
  {
    "STUDYID": "CDISCPILOT01",
    "DOMAIN": "VS",
    "USUBJID": "CDISC002",
    "VSSEQ": 7.0,
    "VSTESTCD": "DIABP",
    "VSTEST": "Diastolic Blood Pressure",
    "VSPOS": "SUPINE",
    "VSORRES": "59",
    "VSORRESU": "mmHg",
    "VSSTRESC": "59",
    "VSSTRESN": 59.0,
    "VSSTRESU": "mmHg",
    "VSSTAT": "",
    "VSLOC": "",
    "VSLOBXFL": "",
    "VSREPNUM": 1.0,
    "VISITNUM": 8.0,
    "VISIT": "WEEK 8",
    "EPOCH": "TREATMENT",
    "VSDTC": "2013-01-08",
    "VSDY": 55.0
  },
  {
    "STUDYID": "CDISCPILOT01",
    "DOMAIN": "VS",
    "USUBJID": "CDISC002",
    "VSSEQ": 8.0,
    "VSTESTCD": "DIABP",
    "VSTEST": "Diastolic Blood Pressure",
    "VSPOS": "STANDING",
    "VSORRES": "65",
    "VSORRESU": "mmHg",
    "VSSTRESC": "65",
    "VSSTRESN": 65.0,
    "VSSTRESU": "mmHg",
    "VSSTAT": "",
    "VSLOC": "",
    "VSLOBXFL": "",
    "VSREPNUM": 2.0,
    "VISITNUM": 8.0,
    "VISIT": "WEEK 8",
    "EPOCH": "TREATMENT",
    "VSDTC": "2013-01-08",
    "VSDY": 55.0
  },
  {
    "STUDYID": "CDISCPILOT01",
    "DOMAIN": "VS",
    "USUBJID": "CDISC002",
    "VSSEQ": 9.0,
    "VSTESTCD": "DIABP",
    "VSTEST": "Diastolic Blood Pressure",
    "VSPOS": "STANDING",
    "VSORRES": "68",
    "VSORRESU": "mmHg",
    "VSSTRESC": "68",
    "VSSTRESN": 68.0,
    "VSSTRESU": "mmHg",
    "VSSTAT": "",
    "VSLOC": "",
    "VSLOBXFL": "",
    "VSREPNUM": 3.0,
    "VISITNUM": 8.0,
    "VISIT": "WEEK 8",
    "EPOCH": "TREATMENT",
    "VSDTC": "2013-01-08",
    "VSDY": 55.0
  },
  {
    "STUDYID": "CDISCPILOT01",
    "DOMAIN": "VS",
    "USUBJID": "CDISC002",
    "VSSEQ": 10.0,
    "VSTESTCD": "HEIGHT",
    "VSTEST": "Height",
    "VSPOS": "",
    "VSORRES": "63.0",
    "VSORRESU": "in",
    "VSSTRESC": "160.02",
    "VSSTRESN": 160.02,
    "VSSTRESU": "cm",
    "VSSTAT": "",
    "VSLOC": "",
    "VSLOBXFL": "",
    "VSREPNUM": "",
    "VISITNUM": 1.0,
    "VISIT": "SCREENING 1",
    "EPOCH": "SCREENING",
    "VSDTC": "2012-10-30",
    "VSDY": -16.0
  },
  {
    "STUDYID": "CDISCPILOT01",
    "DOMAIN": "VS",
    "USUBJID": "CDISC002",
    "VSSEQ": 11.0,
    "VSTESTCD": "PULSE",
    "VSTEST": "Pulse Rate",
    "VSPOS": "STANDING",
    "VSORRES": "55",
    "VSORRESU": "beats/min",
    "VSSTRESC": "55",
    "VSSTRESN": 55.0,
    "VSSTRESU": "beats/min",
    "VSSTAT": "",
    "VSLOC": "",
    "VSLOBXFL": "",
    "VSREPNUM": "",
    "VISITNUM": 1.0,
    "VISIT": "SCREENING 1",
    "EPOCH": "SCREENING",
    "VSDTC": "2012-10-30",
    "VSDY": -16.0
  },
  {
    "STUDYID": "CDISCPILOT01",
    "DOMAIN": "VS",
    "USUBJID": "CDISC002",
    "VSSEQ": 12.0,
    "VSTESTCD": "PULSE",
    "VSTEST": "Pulse Rate",
    "VSPOS": "STANDING",
    "VSORRES": "66",
    "VSORRESU": "beats/min",
    "VSSTRESC": "66",
    "VSSTRESN": 66.0,
    "VSSTRESU": "beats/min",
    "VSSTAT": "",
    "VSLOC": "",
    "VSLOBXFL": "",
    "VSREPNUM": "",
    "VISITNUM": 2.0,
    "VISIT": "SCREENING 2",
    "EPOCH": "SCREENING",
    "VSDTC": "2012-11-14",
    "VSDY": -1.0
  },
  {
    "STUDYID": "CDISCPILOT01",
    "DOMAIN": "VS",
    "USUBJID": "CDISC002",
    "VSSEQ": 13.0,
    "VSTESTCD": "PULSE",
    "VSTEST": "Pulse Rate",
    "VSPOS": "STANDING",
    "VSORRES": "57",
    "VSORRESU": "beats/min",
    "VSSTRESC": "57",
    "VSSTRESN": 57.0,
    "VSSTRESU": "beats/min",
    "VSSTAT": "",
    "VSLOC": "",
    "VSLOBXFL": "Y",
    "VSREPNUM": "",
    "VISITNUM": 3.0,
    "VISIT": "BASELINE",
    "EPOCH": "SCREENING",
    "VSDTC": "2012-11-15",
    "VSDY": 1.0
  },
  {
    "STUDYID": "CDISCPILOT01",
    "DOMAIN": "VS",
    "USUBJID": "CDISC002",
    "VSSEQ": 14.0,
    "VSTESTCD": "PULSE",
    "VSTEST": "Pulse Rate",
    "VSPOS": "STANDING",
    "VSORRES": "74",
    "VSORRESU": "beats/min",
    "VSSTRESC": "74",
    "VSSTRESN": 74.0,
    "VSSTRESU": "beats/min",
    "VSSTAT": "",
    "VSLOC": "",
    "VSLOBXFL": "",
    "VSREPNUM": "",
    "VISITNUM": 4.0,
    "VISIT": "WEEK 2",
    "EPOCH": "TREATMENT",
    "VSDTC": "2012-11-28",
    "VSDY": 14.0
  },
  {
    "STUDYID": "CDISCPILOT01",
    "DOMAIN": "VS",
    "USUBJID": "CDISC002",
    "VSSEQ": 15.0,
    "VSTESTCD": "PULSE",
    "VSTEST": "Pulse Rate",
    "VSPOS": "STANDING",
    "VSORRES": "66",
    "VSORRESU": "beats/min",
    "VSSTRESC": "66",
    "VSSTRESN": 66.0,
    "VSSTRESU": "beats/min",
    "VSSTAT": "",
    "VSLOC": "",
    "VSLOBXFL": "",
    "VSREPNUM": "",
    "VISITNUM": 5.0,
    "VISIT": "WEEK 4",
    "EPOCH": "TREATMENT",
    "VSDTC": "2012-12-11",
    "VSDY": 27.0
  },
  {
    "STUDYID": "CDISCPILOT01",
    "DOMAIN": "VS",
    "USUBJID": "CDISC002",
    "VSSEQ": 16.0,
    "VSTESTCD": "PULSE",
    "VSTEST": "Pulse Rate",
    "VSPOS": "STANDING",
    "VSORRES": "63",
    "VSORRESU": "beats/min",
    "VSSTRESC": "63",
    "VSSTRESN": 63.0,
    "VSSTRESU": "beats/min",
    "VSSTAT": "",
    "VSLOC": "",
    "VSLOBXFL": "",
    "VSREPNUM": "",
    "VISITNUM": 7.0,
    "VISIT": "WEEK 6",
    "EPOCH": "TREATMENT",
    "VSDTC": "2012-12-25",
    "VSDY": 41.0
  },
  {
    "STUDYID": "CDISCPILOT01",
    "DOMAIN": "VS",
    "USUBJID": "CDISC002",
    "VSSEQ": 17.0,
    "VSTESTCD": "PULSE",
    "VSTEST": "Pulse Rate",
    "VSPOS": "SUPINE",
    "VSORRES": "65",
    "VSORRESU": "beats/min",
    "VSSTRESC": "65",
    "VSSTRESN": 65.0,
    "VSSTRESU": "beats/min",
    "VSSTAT": "",
    "VSLOC": "",
    "VSLOBXFL": "",
    "VSREPNUM": 1.0,
    "VISITNUM": 8.0,
    "VISIT": "WEEK 8",
    "EPOCH": "TREATMENT",
    "VSDTC": "2013-01-08",
    "VSDY": 55.0
  },
  {
    "STUDYID": "CDISCPILOT01",
    "DOMAIN": "VS",
    "USUBJID": "CDISC002",
    "VSSEQ": 18.0,
    "VSTESTCD": "PULSE",
    "VSTEST": "Pulse Rate",
    "VSPOS": "STANDING",
    "VSORRES": "75",
    "VSORRESU": "beats/min",
    "VSSTRESC": "75",
    "VSSTRESN": 75.0,
    "VSSTRESU": "beats/min",
    "VSSTAT": "",
    "VSLOC": "",
    "VSLOBXFL": "",
    "VSREPNUM": 2.0,
    "VISITNUM": 8.0,
    "VISIT": "WEEK 8",
    "EPOCH": "TREATMENT",
    "VSDTC": "2013-01-08",
    "VSDY": 55.0
  },
  {
    "STUDYID": "CDISCPILOT01",
    "DOMAIN": "VS",
    "USUBJID": "CDISC002",
    "VSSEQ": 19.0,
    "VSTESTCD": "PULSE",
    "VSTEST": "Pulse Rate",
    "VSPOS": "STANDING",
    "VSORRES": "74",
    "VSORRESU": "beats/min",
    "VSSTRESC": "74",
    "VSSTRESN": 74.0,
    "VSSTRESU": "beats/min",
    "VSSTAT": "",
    "VSLOC": "",
    "VSLOBXFL": "",
    "VSREPNUM": 3.0,
    "VISITNUM": 8.0,
    "VISIT": "WEEK 8",
    "EPOCH": "TREATMENT",
    "VSDTC": "2013-01-08",
    "VSDY": 55.0
  },
  {
    "STUDYID": "CDISCPILOT01",
    "DOMAIN": "VS",
    "USUBJID": "CDISC002",
    "VSSEQ": 20.0,
    "VSTESTCD": "SYSBP",
    "VSTEST": "Systolic Blood Pressure",
    "VSPOS": "STANDING",
    "VSORRES": "144",
    "VSORRESU": "mmHg",
    "VSSTRESC": "144",
    "VSSTRESN": 144.0,
    "VSSTRESU": "mmHg",
    "VSSTAT": "",
    "VSLOC": "",
    "VSLOBXFL": "",
    "VSREPNUM": "",
    "VISITNUM": 1.0,
    "VISIT": "SCREENING 1",
    "EPOCH": "SCREENING",
    "VSDTC": "2012-10-30",
    "VSDY": -16.0
  },
  {
    "STUDYID": "CDISCPILOT01",
    "DOMAIN": "VS",
    "USUBJID": "CDISC002",
    "VSSEQ": 21.0,
    "VSTESTCD": "SYSBP",
    "VSTEST": "Systolic Blood Pressure",
    "VSPOS": "STANDING",
    "VSORRES": "137",
    "VSORRESU": "mmHg",
    "VSSTRESC": "137",
    "VSSTRESN": 137.0,
    "VSSTRESU": "mmHg",
    "VSSTAT": "",
    "VSLOC": "",
    "VSLOBXFL": "",
    "VSREPNUM": "",
    "VISITNUM": 2.0,
    "VISIT": "SCREENING 2",
    "EPOCH": "SCREENING",
    "VSDTC": "2012-11-14",
    "VSDY": -1.0
  },
  {
    "STUDYID": "CDISCPILOT01",
    "DOMAIN": "VS",
    "USUBJID": "CDISC002",
    "VSSEQ": 22.0,
    "VSTESTCD": "SYSBP",
    "VSTEST": "Systolic Blood Pressure",
    "VSPOS": "STANDING",
    "VSORRES": "135",
    "VSORRESU": "mmHg",
    "VSSTRESC": "135",
    "VSSTRESN": 135.0,
    "VSSTRESU": "mmHg",
    "VSSTAT": "",
    "VSLOC": "",
    "VSLOBXFL": "Y",
    "VSREPNUM": "",
    "VISITNUM": 3.0,
    "VISIT": "BASELINE",
    "EPOCH": "SCREENING",
    "VSDTC": "2012-11-15",
    "VSDY": 1.0
  },
  {
    "STUDYID": "CDISCPILOT01",
    "DOMAIN": "VS",
    "USUBJID": "CDISC002",
    "VSSEQ": 23.0,
    "VSTESTCD": "SYSBP",
    "VSTEST": "Systolic Blood Pressure",
    "VSPOS": "STANDING",
    "VSORRES": "113",
    "VSORRESU": "mmHg",
    "VSSTRESC": "113",
    "VSSTRESN": 113.0,
    "VSSTRESU": "mmHg",
    "VSSTAT": "",
    "VSLOC": "",
    "VSLOBXFL": "",
    "VSREPNUM": "",
    "VISITNUM": 4.0,
    "VISIT": "WEEK 2",
    "EPOCH": "TREATMENT",
    "VSDTC": "2012-11-28",
    "VSDY": 14.0
  },
  {
    "STUDYID": "CDISCPILOT01",
    "DOMAIN": "VS",
    "USUBJID": "CDISC002",
    "VSSEQ": 24.0,
    "VSTESTCD": "SYSBP",
    "VSTEST": "Systolic Blood Pressure",
    "VSPOS": "STANDING",
    "VSORRES": "115",
    "VSORRESU": "mmHg",
    "VSSTRESC": "115",
    "VSSTRESN": 115.0,
    "VSSTRESU": "mmHg",
    "VSSTAT": "",
    "VSLOC": "",
    "VSLOBXFL": "",
    "VSREPNUM": "",
    "VISITNUM": 5.0,
    "VISIT": "WEEK 4",
    "EPOCH": "TREATMENT",
    "VSDTC": "2012-12-11",
    "VSDY": 27.0
  },
  {
    "STUDYID": "CDISCPILOT01",
    "DOMAIN": "VS",
    "USUBJID": "CDISC002",
    "VSSEQ": 25.0,
    "VSTESTCD": "SYSBP",
    "VSTEST": "Systolic Blood Pressure",
    "VSPOS": "STANDING",
    "VSORRES": "123",
    "VSORRESU": "mmHg",
    "VSSTRESC": "123",
    "VSSTRESN": 123.0,
    "VSSTRESU": "mmHg",
    "VSSTAT": "",
    "VSLOC": "",
    "VSLOBXFL": "",
    "VSREPNUM": "",
    "VISITNUM": 7.0,
    "VISIT": "WEEK 6",
    "EPOCH": "TREATMENT",
    "VSDTC": "2012-12-25",
    "VSDY": 41.0
  },
  {
    "STUDYID": "CDISCPILOT01",
    "DOMAIN": "VS",
    "USUBJID": "CDISC002",
    "VSSEQ": 26.0,
    "VSTESTCD": "SYSBP",
    "VSTEST": "Systolic Blood Pressure",
    "VSPOS": "SUPINE",
    "VSORRES": "156",
    "VSORRESU": "mmHg",
    "VSSTRESC": "156",
    "VSSTRESN": 156.0,
    "VSSTRESU": "mmHg",
    "VSSTAT": "",
    "VSLOC": "",
    "VSLOBXFL": "",
    "VSREPNUM": 1.0,
    "VISITNUM": 8.0,
    "VISIT": "WEEK 8",
    "EPOCH": "TREATMENT",
    "VSDTC": "2013-01-08",
    "VSDY": 55.0
  },
  {
    "STUDYID": "CDISCPILOT01",
    "DOMAIN": "VS",
    "USUBJID": "CDISC002",
    "VSSEQ": 27.0,
    "VSTESTCD": "SYSBP",
    "VSTEST": "Systolic Blood Pressure",
    "VSPOS": "STANDING",
    "VSORRES": "114",
    "VSORRESU": "mmHg",
    "VSSTRESC": "114",
    "VSSTRESN": 114.0,
    "VSSTRESU": "mmHg",
    "VSSTAT": "",
    "VSLOC": "",
    "VSLOBXFL": "",
    "VSREPNUM": 2.0,
    "VISITNUM": 8.0,
    "VISIT": "WEEK 8",
    "EPOCH": "TREATMENT",
    "VSDTC": "2013-01-08",
    "VSDY": 55.0
  },
  {
    "STUDYID": "CDISCPILOT01",
    "DOMAIN": "VS",
    "USUBJID": "CDISC002",
    "VSSEQ": 28.0,
    "VSTESTCD": "SYSBP",
    "VSTEST": "Systolic Blood Pressure",
    "VSPOS": "STANDING",
    "VSORRES": "127",
    "VSORRESU": "mmHg",
    "VSSTRESC": "127",
    "VSSTRESN": 127.0,
    "VSSTRESU": "mmHg",
    "VSSTAT": "",
    "VSLOC": "",
    "VSLOBXFL": "",
    "VSREPNUM": 3.0,
    "VISITNUM": 8.0,
    "VISIT": "WEEK 8",
    "EPOCH": "TREATMENT",
    "VSDTC": "2013-01-08",
    "VSDY": 55.0
  },
  {
    "STUDYID": "CDISCPILOT01",
    "DOMAIN": "VS",
    "USUBJID": "CDISC002",
    "VSSEQ": 29.0,
    "VSTESTCD": "TEMP",
    "VSTEST": "Temperature",
    "VSPOS": "",
    "VSORRES": "99.6",
    "VSORRESU": "F",
    "VSSTRESC": "37.56",
    "VSSTRESN": 37.56,
    "VSSTRESU": "C",
    "VSSTAT": "",
    "VSLOC": "ORAL CAVITY",
    "VSLOBXFL": "",
    "VSREPNUM": "",
    "VISITNUM": 1.0,
    "VISIT": "SCREENING 1",
    "EPOCH": "SCREENING",
    "VSDTC": "2012-10-30",
    "VSDY": -16.0
  },
  {
    "STUDYID": "CDISCPILOT01",
    "DOMAIN": "VS",
    "USUBJID": "CDISC002",
    "VSSEQ": 30.0,
    "VSTESTCD": "TEMP",
    "VSTEST": "Temperature",
    "VSPOS": "",
    "VSORRES": "98.7",
    "VSORRESU": "F",
    "VSSTRESC": "37.06",
    "VSSTRESN": 37.06,
    "VSSTRESU": "C",
    "VSSTAT": "",
    "VSLOC": "ORAL CAVITY",
    "VSLOBXFL": "",
    "VSREPNUM": "",
    "VISITNUM": 2.0,
    "VISIT": "SCREENING 2",
    "EPOCH": "SCREENING",
    "VSDTC": "2012-11-14",
    "VSDY": -1.0
  },
  {
    "STUDYID": "CDISCPILOT01",
    "DOMAIN": "VS",
    "USUBJID": "CDISC002",
    "VSSEQ": 31.0,
    "VSTESTCD": "TEMP",
    "VSTEST": "Temperature",
    "VSPOS": "",
    "VSORRES": "97.8",
    "VSORRESU": "F",
    "VSSTRESC": "36.56",
    "VSSTRESN": 36.56,
    "VSSTRESU": "C",
    "VSSTAT": "",
    "VSLOC": "ORAL CAVITY",
    "VSLOBXFL": "Y",
    "VSREPNUM": "",
    "VISITNUM": 3.0,
    "VISIT": "BASELINE",
    "EPOCH": "SCREENING",
    "VSDTC": "2012-11-15",
    "VSDY": 1.0
  },
  {
    "STUDYID": "CDISCPILOT01",
    "DOMAIN": "VS",
    "USUBJID": "CDISC002",
    "VSSEQ": 32.0,
    "VSTESTCD": "TEMP",
    "VSTEST": "Temperature",
    "VSPOS": "",
    "VSORRES": "97.0",
    "VSORRESU": "F",
    "VSSTRESC": "36.11",
    "VSSTRESN": 36.11,
    "VSSTRESU": "C",
    "VSSTAT": "",
    "VSLOC": "ORAL CAVITY",
    "VSLOBXFL": "",
    "VSREPNUM": "",
    "VISITNUM": 4.0,
    "VISIT": "WEEK 2",
    "EPOCH": "TREATMENT",
    "VSDTC": "2012-11-28",
    "VSDY": 14.0
  },
  {
    "STUDYID": "CDISCPILOT01",
    "DOMAIN": "VS",
    "USUBJID": "CDISC002",
    "VSSEQ": 33.0,
    "VSTESTCD": "TEMP",
    "VSTEST": "Temperature",
    "VSPOS": "",
    "VSORRES": "97.8",
    "VSORRESU": "F",
    "VSSTRESC": "36.56",
    "VSSTRESN": 36.56,
    "VSSTRESU": "C",
    "VSSTAT": "",
    "VSLOC": "ORAL CAVITY",
    "VSLOBXFL": "",
    "VSREPNUM": "",
    "VISITNUM": 5.0,
    "VISIT": "WEEK 4",
    "EPOCH": "TREATMENT",
    "VSDTC": "2012-12-11",
    "VSDY": 27.0
  },
  {
    "STUDYID": "CDISCPILOT01",
    "DOMAIN": "VS",
    "USUBJID": "CDISC002",
    "VSSEQ": 34.0,
    "VSTESTCD": "TEMP",
    "VSTEST": "Temperature",
    "VSPOS": "",
    "VSORRES": "96.2",
    "VSORRESU": "F",
    "VSSTRESC": "35.67",
    "VSSTRESN": 35.67,
    "VSSTRESU": "C",
    "VSSTAT": "",
    "VSLOC": "ORAL CAVITY",
    "VSLOBXFL": "",
    "VSREPNUM": "",
    "VISITNUM": 7.0,
    "VISIT": "WEEK 6",
    "EPOCH": "TREATMENT",
    "VSDTC": "2012-12-25",
    "VSDY": 41.0
  },
  {
    "STUDYID": "CDISCPILOT01",
    "DOMAIN": "VS",
    "USUBJID": "CDISC002",
    "VSSEQ": 35.0,
    "VSTESTCD": "TEMP",
    "VSTEST": "Temperature",
    "VSPOS": "",
    "VSORRES": "97.2",
    "VSORRESU": "F",
    "VSSTRESC": "36.22",
    "VSSTRESN": 36.22,
    "VSSTRESU": "C",
    "VSSTAT": "",
    "VSLOC": "ORAL CAVITY",
    "VSLOBXFL": "",
    "VSREPNUM": "",
    "VISITNUM": 8.0,
    "VISIT": "WEEK 8",
    "EPOCH": "TREATMENT",
    "VSDTC": "2013-01-08",
    "VSDY": 55.0
  },
  {
    "STUDYID": "CDISCPILOT01",
    "DOMAIN": "VS",
    "USUBJID": "CDISC002",
    "VSSEQ": 36.0,
    "VSTESTCD": "WEIGHT",
    "VSTEST": "Weight",
    "VSPOS": "",
    "VSORRES": "101.0",
    "VSORRESU": "LB",
    "VSSTRESC": "45.81",
    "VSSTRESN": 45.81,
    "VSSTRESU": "kg",
    "VSSTAT": "",
    "VSLOC": "",
    "VSLOBXFL": "",
    "VSREPNUM": "",
    "VISITNUM": 1.0,
    "VISIT": "SCREENING 1",
    "EPOCH": "SCREENING",
    "VSDTC": "2012-10-30",
    "VSDY": -16.0
  },
  {
    "STUDYID": "CDISCPILOT01",
    "DOMAIN": "VS",
    "USUBJID": "CDISC002",
    "VSSEQ": 37.0,
    "VSTESTCD": "WEIGHT",
    "VSTEST": "Weight",
    "VSPOS": "",
    "VSORRES": "100.0",
    "VSORRESU": "LB",
    "VSSTRESC": "45.36",
    "VSSTRESN": 45.36,
    "VSSTRESU": "kg",
    "VSSTAT": "",
    "VSLOC": "",
    "VSLOBXFL": "Y",
    "VSREPNUM": "",
    "VISITNUM": 3.0,
    "VISIT": "BASELINE",
    "EPOCH": "SCREENING",
    "VSDTC": "2012-11-15",
    "VSDY": 1.0
  },
  {
    "STUDYID": "CDISCPILOT01",
    "DOMAIN": "VS",
    "USUBJID": "CDISC002",
    "VSSEQ": 38.0,
    "VSTESTCD": "WEIGHT",
    "VSTEST": "Weight",
    "VSPOS": "",
    "VSORRES": "100.0",
    "VSORRESU": "LB",
    "VSSTRESC": "45.36",
    "VSSTRESN": 45.36,
    "VSSTRESU": "kg",
    "VSSTAT": "",
    "VSLOC": "",
    "VSLOBXFL": "",
    "VSREPNUM": "",
    "VISITNUM": 4.0,
    "VISIT": "WEEK 2",
    "EPOCH": "TREATMENT",
    "VSDTC": "2012-11-28",
    "VSDY": 14.0
  },
  {
    "STUDYID": "CDISCPILOT01",
    "DOMAIN": "VS",
    "USUBJID": "CDISC002",
    "VSSEQ": 39.0,
    "VSTESTCD": "WEIGHT",
    "VSTEST": "Weight",
    "VSPOS": "",
    "VSORRES": "101.0",
    "VSORRESU": "LB",
    "VSSTRESC": "45.81",
    "VSSTRESN": 45.81,
    "VSSTRESU": "kg",
    "VSSTAT": "",
    "VSLOC": "",
    "VSLOBXFL": "",
    "VSREPNUM": "",
    "VISITNUM": 5.0,
    "VISIT": "WEEK 4",
    "EPOCH": "TREATMENT",
    "VSDTC": "2012-12-11",
    "VSDY": 27.0
  },
  {
    "STUDYID": "CDISCPILOT01",
    "DOMAIN": "VS",
    "USUBJID": "CDISC002",
    "VSSEQ": 40.0,
    "VSTESTCD": "WEIGHT",
    "VSTEST": "Weight",
    "VSPOS": "",
    "VSORRES": "100.0",
    "VSORRESU": "LB",
    "VSSTRESC": "45.36",
    "VSSTRESN": 45.36,
    "VSSTRESU": "kg",
    "VSSTAT": "",
    "VSLOC": "",
    "VSLOBXFL": "",
    "VSREPNUM": "",
    "VISITNUM": 7.0,
    "VISIT": "WEEK 6",
    "EPOCH": "TREATMENT",
    "VSDTC": "2012-12-25",
    "VSDY": 41.0
  },
  {
    "STUDYID": "CDISCPILOT01",
    "DOMAIN": "VS",
    "USUBJID": "CDISC002",
    "VSSEQ": 41.0,
    "VSTESTCD": "WEIGHT",
    "VSTEST": "Weight",
    "VSPOS": "",
    "VSORRES": "95.0",
    "VSORRESU": "LB",
    "VSSTRESC": "43.09",
    "VSSTRESN": 43.09,
    "VSSTRESU": "kg",
    "VSSTAT": "",
    "VSLOC": "",
    "VSLOBXFL": "",
    "VSREPNUM": "",
    "VISITNUM": 8.0,
    "VISIT": "WEEK 8",
    "EPOCH": "TREATMENT",
    "VSDTC": "2013-01-08",
    "VSDY": 55.0
  },
  {
    "STUDYID": "CDISCPILOT01",
    "DOMAIN": "VS",
    "USUBJID": "CDISC003",
    "VSSEQ": 1.0,
    "VSTESTCD": "DIABP",
    "VSTEST": "Diastolic Blood Pressure",
    "VSPOS": "SUPINE",
    "VSORRES": "68",
    "VSORRESU": "mmHg",
    "VSSTRESC": "68",
    "VSSTRESN": 68.0,
    "VSSTRESU": "mmHg",
    "VSSTAT": "",
    "VSLOC": "",
    "VSLOBXFL": "",
    "VSREPNUM": 1.0,
    "VISITNUM": 1.0,
    "VISIT": "SCREENING 1",
    "EPOCH": "SCREENING",
    "VSDTC": "2013-08-20",
    "VSDY": -9.0
  },
  {
    "STUDYID": "CDISCPILOT01",
    "DOMAIN": "VS",
    "USUBJID": "CDISC003",
    "VSSEQ": 2.0,
    "VSTESTCD": "DIABP",
    "VSTEST": "Diastolic Blood Pressure",
    "VSPOS": "STANDING",
    "VSORRES": "79",
    "VSORRESU": "mmHg",
    "VSSTRESC": "79",
    "VSSTRESN": 79.0,
    "VSSTRESU": "mmHg",
    "VSSTAT": "",
    "VSLOC": "",
    "VSLOBXFL": "",
    "VSREPNUM": 2.0,
    "VISITNUM": 1.0,
    "VISIT": "SCREENING 1",
    "EPOCH": "SCREENING",
    "VSDTC": "2013-08-20",
    "VSDY": -9.0
  },
  {
    "STUDYID": "CDISCPILOT01",
    "DOMAIN": "VS",
    "USUBJID": "CDISC003",
    "VSSEQ": 3.0,
    "VSTESTCD": "DIABP",
    "VSTEST": "Diastolic Blood Pressure",
    "VSPOS": "STANDING",
    "VSORRES": "77",
    "VSORRESU": "mmHg",
    "VSSTRESC": "77",
    "VSSTRESN": 77.0,
    "VSSTRESU": "mmHg",
    "VSSTAT": "",
    "VSLOC": "",
    "VSLOBXFL": "",
    "VSREPNUM": 3.0,
    "VISITNUM": 1.0,
    "VISIT": "SCREENING 1",
    "EPOCH": "SCREENING",
    "VSDTC": "2013-08-20",
    "VSDY": -9.0
  },
  {
    "STUDYID": "CDISCPILOT01",
    "DOMAIN": "VS",
    "USUBJID": "CDISC003",
    "VSSEQ": 4.0,
    "VSTESTCD": "DIABP",
    "VSTEST": "Diastolic Blood Pressure",
    "VSPOS": "SUPINE",
    "VSORRES": "68",
    "VSORRESU": "mmHg",
    "VSSTRESC": "68",
    "VSSTRESN": 68.0,
    "VSSTRESU": "mmHg",
    "VSSTAT": "",
    "VSLOC": "",
    "VSLOBXFL": "",
    "VSREPNUM": 1.0,
    "VISITNUM": 2.0,
    "VISIT": "SCREENING 2",
    "EPOCH": "SCREENING",
    "VSDTC": "2013-08-27",
    "VSDY": -2.0
  },
  {
    "STUDYID": "CDISCPILOT01",
    "DOMAIN": "VS",
    "USUBJID": "CDISC003",
    "VSSEQ": 5.0,
    "VSTESTCD": "DIABP",
    "VSTEST": "Diastolic Blood Pressure",
    "VSPOS": "STANDING",
    "VSORRES": "75",
    "VSORRESU": "mmHg",
    "VSSTRESC": "75",
    "VSSTRESN": 75.0,
    "VSSTRESU": "mmHg",
    "VSSTAT": "",
    "VSLOC": "",
    "VSLOBXFL": "",
    "VSREPNUM": 2.0,
    "VISITNUM": 2.0,
    "VISIT": "SCREENING 2",
    "EPOCH": "SCREENING",
    "VSDTC": "2013-08-27",
    "VSDY": -2.0
  },
  {
    "STUDYID": "CDISCPILOT01",
    "DOMAIN": "VS",
    "USUBJID": "CDISC003",
    "VSSEQ": 6.0,
    "VSTESTCD": "DIABP",
    "VSTEST": "Diastolic Blood Pressure",
    "VSPOS": "STANDING",
    "VSORRES": "76",
    "VSORRESU": "mmHg",
    "VSSTRESC": "76",
    "VSSTRESN": 76.0,
    "VSSTRESU": "mmHg",
    "VSSTAT": "",
    "VSLOC": "",
    "VSLOBXFL": "",
    "VSREPNUM": 3.0,
    "VISITNUM": 2.0,
    "VISIT": "SCREENING 2",
    "EPOCH": "SCREENING",
    "VSDTC": "2013-08-27",
    "VSDY": -2.0
  },
  {
    "STUDYID": "CDISCPILOT01",
    "DOMAIN": "VS",
    "USUBJID": "CDISC003",
    "VSSEQ": 7.0,
    "VSTESTCD": "DIABP",
    "VSTEST": "Diastolic Blood Pressure",
    "VSPOS": "SUPINE",
    "VSORRES": "76",
    "VSORRESU": "mmHg",
    "VSSTRESC": "76",
    "VSSTRESN": 76.0,
    "VSSTRESU": "mmHg",
    "VSSTAT": "",
    "VSLOC": "",
    "VSLOBXFL": "",
    "VSREPNUM": 1.0,
    "VISITNUM": 3.0,
    "VISIT": "BASELINE",
    "EPOCH": "SCREENING",
    "VSDTC": "2013-08-29",
    "VSDY": 1.0
  },
  {
    "STUDYID": "CDISCPILOT01",
    "DOMAIN": "VS",
    "USUBJID": "CDISC003",
    "VSSEQ": 8.0,
    "VSTESTCD": "DIABP",
    "VSTEST": "Diastolic Blood Pressure",
    "VSPOS": "STANDING",
    "VSORRES": "87",
    "VSORRESU": "mmHg",
    "VSSTRESC": "87",
    "VSSTRESN": 87.0,
    "VSSTRESU": "mmHg",
    "VSSTAT": "",
    "VSLOC": "",
    "VSLOBXFL": "",
    "VSREPNUM": 2.0,
    "VISITNUM": 3.0,
    "VISIT": "BASELINE",
    "EPOCH": "SCREENING",
    "VSDTC": "2013-08-29",
    "VSDY": 1.0
  },
  {
    "STUDYID": "CDISCPILOT01",
    "DOMAIN": "VS",
    "USUBJID": "CDISC003",
    "VSSEQ": 9.0,
    "VSTESTCD": "DIABP",
    "VSTEST": "Diastolic Blood Pressure",
    "VSPOS": "STANDING",
    "VSORRES": "83",
    "VSORRESU": "mmHg",
    "VSSTRESC": "83",
    "VSSTRESN": 83.0,
    "VSSTRESU": "mmHg",
    "VSSTAT": "",
    "VSLOC": "",
    "VSLOBXFL": "Y",
    "VSREPNUM": 3.0,
    "VISITNUM": 3.0,
    "VISIT": "BASELINE",
    "EPOCH": "SCREENING",
    "VSDTC": "2013-08-29",
    "VSDY": 1.0
  },
  {
    "STUDYID": "CDISCPILOT01",
    "DOMAIN": "VS",
    "USUBJID": "CDISC003",
    "VSSEQ": 10.0,
    "VSTESTCD": "DIABP",
    "VSTEST": "Diastolic Blood Pressure",
    "VSPOS": "SUPINE",
    "VSORRES": "71",
    "VSORRESU": "mmHg",
    "VSSTRESC": "71",
    "VSSTRESN": 71.0,
    "VSSTRESU": "mmHg",
    "VSSTAT": "",
    "VSLOC": "",
    "VSLOBXFL": "",
    "VSREPNUM": 1.0,
    "VISITNUM": 4.0,
    "VISIT": "WEEK 2",
    "EPOCH": "TREATMENT",
    "VSDTC": "2013-09-15",
    "VSDY": 18.0
  },
  {
    "STUDYID": "CDISCPILOT01",
    "DOMAIN": "VS",
    "USUBJID": "CDISC003",
    "VSSEQ": 11.0,
    "VSTESTCD": "DIABP",
    "VSTEST": "Diastolic Blood Pressure",
    "VSPOS": "STANDING",
    "VSORRES": "79",
    "VSORRESU": "mmHg",
    "VSSTRESC": "79",
    "VSSTRESN": 79.0,
    "VSSTRESU": "mmHg",
    "VSSTAT": "",
    "VSLOC": "",
    "VSLOBXFL": "",
    "VSREPNUM": 2.0,
    "VISITNUM": 4.0,
    "VISIT": "WEEK 2",
    "EPOCH": "TREATMENT",
    "VSDTC": "2013-09-15",
    "VSDY": 18.0
  },
  {
    "STUDYID": "CDISCPILOT01",
    "DOMAIN": "VS",
    "USUBJID": "CDISC003",
    "VSSEQ": 12.0,
    "VSTESTCD": "DIABP",
    "VSTEST": "Diastolic Blood Pressure",
    "VSPOS": "STANDING",
    "VSORRES": "84",
    "VSORRESU": "mmHg",
    "VSSTRESC": "84",
    "VSSTRESN": 84.0,
    "VSSTRESU": "mmHg",
    "VSSTAT": "",
    "VSLOC": "",
    "VSLOBXFL": "",
    "VSREPNUM": 3.0,
    "VISITNUM": 4.0,
    "VISIT": "WEEK 2",
    "EPOCH": "TREATMENT",
    "VSDTC": "2013-09-15",
    "VSDY": 18.0
  },
  {
    "STUDYID": "CDISCPILOT01",
    "DOMAIN": "VS",
    "USUBJID": "CDISC003",
    "VSSEQ": 13.0,
    "VSTESTCD": "DIABP",
    "VSTEST": "Diastolic Blood Pressure",
    "VSPOS": "SUPINE",
    "VSORRES": "76",
    "VSORRESU": "mmHg",
    "VSSTRESC": "76",
    "VSSTRESN": 76.0,
    "VSSTRESU": "mmHg",
    "VSSTAT": "",
    "VSLOC": "",
    "VSLOBXFL": "",
    "VSREPNUM": 1.0,
    "VISITNUM": 5.0,
    "VISIT": "WEEK 4",
    "EPOCH": "TREATMENT",
    "VSDTC": "2013-09-24",
    "VSDY": 27.0
  },
  {
    "STUDYID": "CDISCPILOT01",
    "DOMAIN": "VS",
    "USUBJID": "CDISC003",
    "VSSEQ": 14.0,
    "VSTESTCD": "DIABP",
    "VSTEST": "Diastolic Blood Pressure",
    "VSPOS": "STANDING",
    "VSORRES": "80",
    "VSORRESU": "mmHg",
    "VSSTRESC": "80",
    "VSSTRESN": 80.0,
    "VSSTRESU": "mmHg",
    "VSSTAT": "",
    "VSLOC": "",
    "VSLOBXFL": "",
    "VSREPNUM": 2.0,
    "VISITNUM": 5.0,
    "VISIT": "WEEK 4",
    "EPOCH": "TREATMENT",
    "VSDTC": "2013-09-24",
    "VSDY": 27.0
  },
  {
    "STUDYID": "CDISCPILOT01",
    "DOMAIN": "VS",
    "USUBJID": "CDISC003",
    "VSSEQ": 15.0,
    "VSTESTCD": "DIABP",
    "VSTEST": "Diastolic Blood Pressure",
    "VSPOS": "STANDING",
    "VSORRES": "80",
    "VSORRESU": "mmHg",
    "VSSTRESC": "80",
    "VSSTRESN": 80.0,
    "VSSTRESU": "mmHg",
    "VSSTAT": "",
    "VSLOC": "",
    "VSLOBXFL": "",
    "VSREPNUM": 3.0,
    "VISITNUM": 5.0,
    "VISIT": "WEEK 4",
    "EPOCH": "TREATMENT",
    "VSDTC": "2013-09-24",
    "VSDY": 27.0
  },
  {
    "STUDYID": "CDISCPILOT01",
    "DOMAIN": "VS",
    "USUBJID": "CDISC003",
    "VSSEQ": 16.0,
    "VSTESTCD": "DIABP",
    "VSTEST": "Diastolic Blood Pressure",
    "VSPOS": "SUPINE",
    "VSORRES": "65",
    "VSORRESU": "mmHg",
    "VSSTRESC": "65",
    "VSSTRESN": 65.0,
    "VSSTRESU": "mmHg",
    "VSSTAT": "",
    "VSLOC": "",
    "VSLOBXFL": "",
    "VSREPNUM": 1.0,
    "VISITNUM": 7.0,
    "VISIT": "WEEK 6",
    "EPOCH": "TREATMENT",
    "VSDTC": "2013-10-08",
    "VSDY": 41.0
  },
  {
    "STUDYID": "CDISCPILOT01",
    "DOMAIN": "VS",
    "USUBJID": "CDISC003",
    "VSSEQ": 17.0,
    "VSTESTCD": "DIABP",
    "VSTEST": "Diastolic Blood Pressure",
    "VSPOS": "STANDING",
    "VSORRES": "70",
    "VSORRESU": "mmHg",
    "VSSTRESC": "70",
    "VSSTRESN": 70.0,
    "VSSTRESU": "mmHg",
    "VSSTAT": "",
    "VSLOC": "",
    "VSLOBXFL": "",
    "VSREPNUM": 2.0,
    "VISITNUM": 7.0,
    "VISIT": "WEEK 6",
    "EPOCH": "TREATMENT",
    "VSDTC": "2013-10-08",
    "VSDY": 41.0
  },
  {
    "STUDYID": "CDISCPILOT01",
    "DOMAIN": "VS",
    "USUBJID": "CDISC003",
    "VSSEQ": 18.0,
    "VSTESTCD": "DIABP",
    "VSTEST": "Diastolic Blood Pressure",
    "VSPOS": "STANDING",
    "VSORRES": "76",
    "VSORRESU": "mmHg",
    "VSSTRESC": "76",
    "VSSTRESN": 76.0,
    "VSSTRESU": "mmHg",
    "VSSTAT": "",
    "VSLOC": "",
    "VSLOBXFL": "",
    "VSREPNUM": 3.0,
    "VISITNUM": 7.0,
    "VISIT": "WEEK 6",
    "EPOCH": "TREATMENT",
    "VSDTC": "2013-10-08",
    "VSDY": 41.0
  },
  {
    "STUDYID": "CDISCPILOT01",
    "DOMAIN": "VS",
    "USUBJID": "CDISC003",
    "VSSEQ": 19.0,
    "VSTESTCD": "DIABP",
    "VSTEST": "Diastolic Blood Pressure",
    "VSPOS": "SUPINE",
    "VSORRES": "77",
    "VSORRESU": "mmHg",
    "VSSTRESC": "77",
    "VSSTRESN": 77.0,
    "VSSTRESU": "mmHg",
    "VSSTAT": "",
    "VSLOC": "",
    "VSLOBXFL": "",
    "VSREPNUM": 1.0,
    "VISITNUM": 8.0,
    "VISIT": "WEEK 8",
    "EPOCH": "TREATMENT",
    "VSDTC": "2013-10-22",
    "VSDY": 55.0
  },
  {
    "STUDYID": "CDISCPILOT01",
    "DOMAIN": "VS",
    "USUBJID": "CDISC003",
    "VSSEQ": 20.0,
    "VSTESTCD": "DIABP",
    "VSTEST": "Diastolic Blood Pressure",
    "VSPOS": "STANDING",
    "VSORRES": "84",
    "VSORRESU": "mmHg",
    "VSSTRESC": "84",
    "VSSTRESN": 84.0,
    "VSSTRESU": "mmHg",
    "VSSTAT": "",
    "VSLOC": "",
    "VSLOBXFL": "",
    "VSREPNUM": 2.0,
    "VISITNUM": 8.0,
    "VISIT": "WEEK 8",
    "EPOCH": "TREATMENT",
    "VSDTC": "2013-10-22",
    "VSDY": 55.0
  },
  {
    "STUDYID": "CDISCPILOT01",
    "DOMAIN": "VS",
    "USUBJID": "CDISC003",
    "VSSEQ": 21.0,
    "VSTESTCD": "DIABP",
    "VSTEST": "Diastolic Blood Pressure",
    "VSPOS": "STANDING",
    "VSORRES": "91",
    "VSORRESU": "mmHg",
    "VSSTRESC": "91",
    "VSSTRESN": 91.0,
    "VSSTRESU": "mmHg",
    "VSSTAT": "",
    "VSLOC": "",
    "VSLOBXFL": "",
    "VSREPNUM": 3.0,
    "VISITNUM": 8.0,
    "VISIT": "WEEK 8",
    "EPOCH": "TREATMENT",
    "VSDTC": "2013-10-22",
    "VSDY": 55.0
  },
  {
    "STUDYID": "CDISCPILOT01",
    "DOMAIN": "VS",
    "USUBJID": "CDISC003",
    "VSSEQ": 22.0,
    "VSTESTCD": "DIABP",
    "VSTEST": "Diastolic Blood Pressure",
    "VSPOS": "SUPINE",
    "VSORRES": "76",
    "VSORRESU": "mmHg",
    "VSSTRESC": "76",
    "VSSTRESN": 76.0,
    "VSSTRESU": "mmHg",
    "VSSTAT": "",
    "VSLOC": "",
    "VSLOBXFL": "",
    "VSREPNUM": 1.0,
    "VISITNUM": 9.0,
    "VISIT": "WEEK 12",
    "EPOCH": "TREATMENT",
    "VSDTC": "2013-11-05",
    "VSDY": 69.0
  },
  {
    "STUDYID": "CDISCPILOT01",
    "DOMAIN": "VS",
    "USUBJID": "CDISC003",
    "VSSEQ": 23.0,
    "VSTESTCD": "DIABP",
    "VSTEST": "Diastolic Blood Pressure",
    "VSPOS": "STANDING",
    "VSORRES": "81",
    "VSORRESU": "mmHg",
    "VSSTRESC": "81",
    "VSSTRESN": 81.0,
    "VSSTRESU": "mmHg",
    "VSSTAT": "",
    "VSLOC": "",
    "VSLOBXFL": "",
    "VSREPNUM": 2.0,
    "VISITNUM": 9.0,
    "VISIT": "WEEK 12",
    "EPOCH": "TREATMENT",
    "VSDTC": "2013-11-05",
    "VSDY": 69.0
  },
  {
    "STUDYID": "CDISCPILOT01",
    "DOMAIN": "VS",
    "USUBJID": "CDISC003",
    "VSSEQ": 24.0,
    "VSTESTCD": "DIABP",
    "VSTEST": "Diastolic Blood Pressure",
    "VSPOS": "STANDING",
    "VSORRES": "81",
    "VSORRESU": "mmHg",
    "VSSTRESC": "81",
    "VSSTRESN": 81.0,
    "VSSTRESU": "mmHg",
    "VSSTAT": "",
    "VSLOC": "",
    "VSLOBXFL": "",
    "VSREPNUM": 3.0,
    "VISITNUM": 9.0,
    "VISIT": "WEEK 12",
    "EPOCH": "TREATMENT",
    "VSDTC": "2013-11-05",
    "VSDY": 69.0
  },
  {
    "STUDYID": "CDISCPILOT01",
    "DOMAIN": "VS",
    "USUBJID": "CDISC003",
    "VSSEQ": 25.0,
    "VSTESTCD": "DIABP",
    "VSTEST": "Diastolic Blood Pressure",
    "VSPOS": "SUPINE",
    "VSORRES": "75",
    "VSORRESU": "mmHg",
    "VSSTRESC": "75",
    "VSSTRESN": 75.0,
    "VSSTRESU": "mmHg",
    "VSSTAT": "",
    "VSLOC": "",
    "VSLOBXFL": "",
    "VSREPNUM": 1.0,
    "VISITNUM": 201.0,
    "VISIT": "EARLY DISCONTINUATION RETRIEVAL",
    "EPOCH": "TREATMENT",
    "VSDTC": "2014-02-13",
    "VSDY": 169.0
  },
  {
    "STUDYID": "CDISCPILOT01",
    "DOMAIN": "VS",
    "USUBJID": "CDISC003",
    "VSSEQ": 26.0,
    "VSTESTCD": "DIABP",
    "VSTEST": "Diastolic Blood Pressure",
    "VSPOS": "STANDING",
    "VSORRES": "83",
    "VSORRESU": "mmHg",
    "VSSTRESC": "83",
    "VSSTRESN": 83.0,
    "VSSTRESU": "mmHg",
    "VSSTAT": "",
    "VSLOC": "",
    "VSLOBXFL": "",
    "VSREPNUM": 2.0,
    "VISITNUM": 201.0,
    "VISIT": "EARLY DISCONTINUATION RETRIEVAL",
    "EPOCH": "TREATMENT",
    "VSDTC": "2014-02-13",
    "VSDY": 169.0
  },
  {
    "STUDYID": "CDISCPILOT01",
    "DOMAIN": "VS",
    "USUBJID": "CDISC003",
    "VSSEQ": 27.0,
    "VSTESTCD": "DIABP",
    "VSTEST": "Diastolic Blood Pressure",
    "VSPOS": "STANDING",
    "VSORRES": "80",
    "VSORRESU": "mmHg",
    "VSSTRESC": "80",
    "VSSTRESN": 80.0,
    "VSSTRESU": "mmHg",
    "VSSTAT": "",
    "VSLOC": "",
    "VSLOBXFL": "",
    "VSREPNUM": 3.0,
    "VISITNUM": 201.0,
    "VISIT": "EARLY DISCONTINUATION RETRIEVAL",
    "EPOCH": "TREATMENT",
    "VSDTC": "2014-02-13",
    "VSDY": 169.0
  },
  {
    "STUDYID": "CDISCPILOT01",
    "DOMAIN": "VS",
    "USUBJID": "CDISC003",
    "VSSEQ": 28.0,
    "VSTESTCD": "HEIGHT",
    "VSTEST": "Height",
    "VSPOS": "",
    "VSORRES": "70.0",
    "VSORRESU": "in",
    "VSSTRESC": "177.8",
    "VSSTRESN": 177.8,
    "VSSTRESU": "cm",
    "VSSTAT": "",
    "VSLOC": "",
    "VSLOBXFL": "",
    "VSREPNUM": "",
    "VISITNUM": 1.0,
    "VISIT": "SCREENING 1",
    "EPOCH": "SCREENING",
    "VSDTC": "2013-08-20",
    "VSDY": -9.0
  },
  {
    "STUDYID": "CDISCPILOT01",
    "DOMAIN": "VS",
    "USUBJID": "CDISC003",
    "VSSEQ": 29.0,
    "VSTESTCD": "PULSE",
    "VSTEST": "Pulse Rate",
    "VSPOS": "SUPINE",
    "VSORRES": "58",
    "VSORRESU": "beats/min",
    "VSSTRESC": "58",
    "VSSTRESN": 58.0,
    "VSSTRESU": "beats/min",
    "VSSTAT": "",
    "VSLOC": "",
    "VSLOBXFL": "",
    "VSREPNUM": 1.0,
    "VISITNUM": 1.0,
    "VISIT": "SCREENING 1",
    "EPOCH": "SCREENING",
    "VSDTC": "2013-08-20",
    "VSDY": -9.0
  },
  {
    "STUDYID": "CDISCPILOT01",
    "DOMAIN": "VS",
    "USUBJID": "CDISC003",
    "VSSEQ": 30.0,
    "VSTESTCD": "PULSE",
    "VSTEST": "Pulse Rate",
    "VSPOS": "STANDING",
    "VSORRES": "68",
    "VSORRESU": "beats/min",
    "VSSTRESC": "68",
    "VSSTRESN": 68.0,
    "VSSTRESU": "beats/min",
    "VSSTAT": "",
    "VSLOC": "",
    "VSLOBXFL": "",
    "VSREPNUM": 2.0,
    "VISITNUM": 1.0,
    "VISIT": "SCREENING 1",
    "EPOCH": "SCREENING",
    "VSDTC": "2013-08-20",
    "VSDY": -9.0
  },
  {
    "STUDYID": "CDISCPILOT01",
    "DOMAIN": "VS",
    "USUBJID": "CDISC003",
    "VSSEQ": 31.0,
    "VSTESTCD": "PULSE",
    "VSTEST": "Pulse Rate",
    "VSPOS": "STANDING",
    "VSORRES": "64",
    "VSORRESU": "beats/min",
    "VSSTRESC": "64",
    "VSSTRESN": 64.0,
    "VSSTRESU": "beats/min",
    "VSSTAT": "",
    "VSLOC": "",
    "VSLOBXFL": "",
    "VSREPNUM": 3.0,
    "VISITNUM": 1.0,
    "VISIT": "SCREENING 1",
    "EPOCH": "SCREENING",
    "VSDTC": "2013-08-20",
    "VSDY": -9.0
  },
  {
    "STUDYID": "CDISCPILOT01",
    "DOMAIN": "VS",
    "USUBJID": "CDISC003",
    "VSSEQ": 32.0,
    "VSTESTCD": "PULSE",
    "VSTEST": "Pulse Rate",
    "VSPOS": "SUPINE",
    "VSORRES": "59",
    "VSORRESU": "beats/min",
    "VSSTRESC": "59",
    "VSSTRESN": 59.0,
    "VSSTRESU": "beats/min",
    "VSSTAT": "",
    "VSLOC": "",
    "VSLOBXFL": "",
    "VSREPNUM": 1.0,
    "VISITNUM": 2.0,
    "VISIT": "SCREENING 2",
    "EPOCH": "SCREENING",
    "VSDTC": "2013-08-27",
    "VSDY": -2.0
  },
  {
    "STUDYID": "CDISCPILOT01",
    "DOMAIN": "VS",
    "USUBJID": "CDISC003",
    "VSSEQ": 33.0,
    "VSTESTCD": "PULSE",
    "VSTEST": "Pulse Rate",
    "VSPOS": "STANDING",
    "VSORRES": "65",
    "VSORRESU": "beats/min",
    "VSSTRESC": "65",
    "VSSTRESN": 65.0,
    "VSSTRESU": "beats/min",
    "VSSTAT": "",
    "VSLOC": "",
    "VSLOBXFL": "",
    "VSREPNUM": 2.0,
    "VISITNUM": 2.0,
    "VISIT": "SCREENING 2",
    "EPOCH": "SCREENING",
    "VSDTC": "2013-08-27",
    "VSDY": -2.0
  },
  {
    "STUDYID": "CDISCPILOT01",
    "DOMAIN": "VS",
    "USUBJID": "CDISC003",
    "VSSEQ": 34.0,
    "VSTESTCD": "PULSE",
    "VSTEST": "Pulse Rate",
    "VSPOS": "STANDING",
    "VSORRES": "71",
    "VSORRESU": "beats/min",
    "VSSTRESC": "71",
    "VSSTRESN": 71.0,
    "VSSTRESU": "beats/min",
    "VSSTAT": "",
    "VSLOC": "",
    "VSLOBXFL": "",
    "VSREPNUM": 3.0,
    "VISITNUM": 2.0,
    "VISIT": "SCREENING 2",
    "EPOCH": "SCREENING",
    "VSDTC": "2013-08-27",
    "VSDY": -2.0
  },
  {
    "STUDYID": "CDISCPILOT01",
    "DOMAIN": "VS",
    "USUBJID": "CDISC003",
    "VSSEQ": 35.0,
    "VSTESTCD": "PULSE",
    "VSTEST": "Pulse Rate",
    "VSPOS": "SUPINE",
    "VSORRES": "54",
    "VSORRESU": "beats/min",
    "VSSTRESC": "54",
    "VSSTRESN": 54.0,
    "VSSTRESU": "beats/min",
    "VSSTAT": "",
    "VSLOC": "",
    "VSLOBXFL": "",
    "VSREPNUM": 1.0,
    "VISITNUM": 3.0,
    "VISIT": "BASELINE",
    "EPOCH": "SCREENING",
    "VSDTC": "2013-08-29",
    "VSDY": 1.0
  },
  {
    "STUDYID": "CDISCPILOT01",
    "DOMAIN": "VS",
    "USUBJID": "CDISC003",
    "VSSEQ": 36.0,
    "VSTESTCD": "PULSE",
    "VSTEST": "Pulse Rate",
    "VSPOS": "STANDING",
    "VSORRES": "62",
    "VSORRESU": "beats/min",
    "VSSTRESC": "62",
    "VSSTRESN": 62.0,
    "VSSTRESU": "beats/min",
    "VSSTAT": "",
    "VSLOC": "",
    "VSLOBXFL": "",
    "VSREPNUM": 2.0,
    "VISITNUM": 3.0,
    "VISIT": "BASELINE",
    "EPOCH": "SCREENING",
    "VSDTC": "2013-08-29",
    "VSDY": 1.0
  },
  {
    "STUDYID": "CDISCPILOT01",
    "DOMAIN": "VS",
    "USUBJID": "CDISC003",
    "VSSEQ": 37.0,
    "VSTESTCD": "PULSE",
    "VSTEST": "Pulse Rate",
    "VSPOS": "STANDING",
    "VSORRES": "61",
    "VSORRESU": "beats/min",
    "VSSTRESC": "61",
    "VSSTRESN": 61.0,
    "VSSTRESU": "beats/min",
    "VSSTAT": "",
    "VSLOC": "",
    "VSLOBXFL": "Y",
    "VSREPNUM": 3.0,
    "VISITNUM": 3.0,
    "VISIT": "BASELINE",
    "EPOCH": "SCREENING",
    "VSDTC": "2013-08-29",
    "VSDY": 1.0
  },
  {
    "STUDYID": "CDISCPILOT01",
    "DOMAIN": "VS",
    "USUBJID": "CDISC003",
    "VSSEQ": 38.0,
    "VSTESTCD": "PULSE",
    "VSTEST": "Pulse Rate",
    "VSPOS": "SUPINE",
    "VSORRES": "72",
    "VSORRESU": "beats/min",
    "VSSTRESC": "72",
    "VSSTRESN": 72.0,
    "VSSTRESU": "beats/min",
    "VSSTAT": "",
    "VSLOC": "",
    "VSLOBXFL": "",
    "VSREPNUM": 1.0,
    "VISITNUM": 4.0,
    "VISIT": "WEEK 2",
    "EPOCH": "TREATMENT",
    "VSDTC": "2013-09-15",
    "VSDY": 18.0
  },
  {
    "STUDYID": "CDISCPILOT01",
    "DOMAIN": "VS",
    "USUBJID": "CDISC003",
    "VSSEQ": 39.0,
    "VSTESTCD": "PULSE",
    "VSTEST": "Pulse Rate",
    "VSPOS": "STANDING",
    "VSORRES": "80",
    "VSORRESU": "beats/min",
    "VSSTRESC": "80",
    "VSSTRESN": 80.0,
    "VSSTRESU": "beats/min",
    "VSSTAT": "",
    "VSLOC": "",
    "VSLOBXFL": "",
    "VSREPNUM": 2.0,
    "VISITNUM": 4.0,
    "VISIT": "WEEK 2",
    "EPOCH": "TREATMENT",
    "VSDTC": "2013-09-15",
    "VSDY": 18.0
  },
  {
    "STUDYID": "CDISCPILOT01",
    "DOMAIN": "VS",
    "USUBJID": "CDISC003",
    "VSSEQ": 40.0,
    "VSTESTCD": "PULSE",
    "VSTEST": "Pulse Rate",
    "VSPOS": "STANDING",
    "VSORRES": "82",
    "VSORRESU": "beats/min",
    "VSSTRESC": "82",
    "VSSTRESN": 82.0,
    "VSSTRESU": "beats/min",
    "VSSTAT": "",
    "VSLOC": "",
    "VSLOBXFL": "",
    "VSREPNUM": 3.0,
    "VISITNUM": 4.0,
    "VISIT": "WEEK 2",
    "EPOCH": "TREATMENT",
    "VSDTC": "2013-09-15",
    "VSDY": 18.0
  },
  {
    "STUDYID": "CDISCPILOT01",
    "DOMAIN": "VS",
    "USUBJID": "CDISC003",
    "VSSEQ": 41.0,
    "VSTESTCD": "PULSE",
    "VSTEST": "Pulse Rate",
    "VSPOS": "SUPINE",
    "VSORRES": "52",
    "VSORRESU": "beats/min",
    "VSSTRESC": "52",
    "VSSTRESN": 52.0,
    "VSSTRESU": "beats/min",
    "VSSTAT": "",
    "VSLOC": "",
    "VSLOBXFL": "",
    "VSREPNUM": 1.0,
    "VISITNUM": 5.0,
    "VISIT": "WEEK 4",
    "EPOCH": "TREATMENT",
    "VSDTC": "2013-09-24",
    "VSDY": 27.0
  },
  {
    "STUDYID": "CDISCPILOT01",
    "DOMAIN": "VS",
    "USUBJID": "CDISC003",
    "VSSEQ": 42.0,
    "VSTESTCD": "PULSE",
    "VSTEST": "Pulse Rate",
    "VSPOS": "STANDING",
    "VSORRES": "62",
    "VSORRESU": "beats/min",
    "VSSTRESC": "62",
    "VSSTRESN": 62.0,
    "VSSTRESU": "beats/min",
    "VSSTAT": "",
    "VSLOC": "",
    "VSLOBXFL": "",
    "VSREPNUM": 2.0,
    "VISITNUM": 5.0,
    "VISIT": "WEEK 4",
    "EPOCH": "TREATMENT",
    "VSDTC": "2013-09-24",
    "VSDY": 27.0
  },
  {
    "STUDYID": "CDISCPILOT01",
    "DOMAIN": "VS",
    "USUBJID": "CDISC003",
    "VSSEQ": 43.0,
    "VSTESTCD": "PULSE",
    "VSTEST": "Pulse Rate",
    "VSPOS": "STANDING",
    "VSORRES": "66",
    "VSORRESU": "beats/min",
    "VSSTRESC": "66",
    "VSSTRESN": 66.0,
    "VSSTRESU": "beats/min",
    "VSSTAT": "",
    "VSLOC": "",
    "VSLOBXFL": "",
    "VSREPNUM": 3.0,
    "VISITNUM": 5.0,
    "VISIT": "WEEK 4",
    "EPOCH": "TREATMENT",
    "VSDTC": "2013-09-24",
    "VSDY": 27.0
  },
  {
    "STUDYID": "CDISCPILOT01",
    "DOMAIN": "VS",
    "USUBJID": "CDISC003",
    "VSSEQ": 44.0,
    "VSTESTCD": "PULSE",
    "VSTEST": "Pulse Rate",
    "VSPOS": "SUPINE",
    "VSORRES": "79",
    "VSORRESU": "beats/min",
    "VSSTRESC": "79",
    "VSSTRESN": 79.0,
    "VSSTRESU": "beats/min",
    "VSSTAT": "",
    "VSLOC": "",
    "VSLOBXFL": "",
    "VSREPNUM": 1.0,
    "VISITNUM": 7.0,
    "VISIT": "WEEK 6",
    "EPOCH": "TREATMENT",
    "VSDTC": "2013-10-08",
    "VSDY": 41.0
  },
  {
    "STUDYID": "CDISCPILOT01",
    "DOMAIN": "VS",
    "USUBJID": "CDISC003",
    "VSSEQ": 45.0,
    "VSTESTCD": "PULSE",
    "VSTEST": "Pulse Rate",
    "VSPOS": "STANDING",
    "VSORRES": "91",
    "VSORRESU": "beats/min",
    "VSSTRESC": "91",
    "VSSTRESN": 91.0,
    "VSSTRESU": "beats/min",
    "VSSTAT": "",
    "VSLOC": "",
    "VSLOBXFL": "",
    "VSREPNUM": 2.0,
    "VISITNUM": 7.0,
    "VISIT": "WEEK 6",
    "EPOCH": "TREATMENT",
    "VSDTC": "2013-10-08",
    "VSDY": 41.0
  },
  {
    "STUDYID": "CDISCPILOT01",
    "DOMAIN": "VS",
    "USUBJID": "CDISC003",
    "VSSEQ": 46.0,
    "VSTESTCD": "PULSE",
    "VSTEST": "Pulse Rate",
    "VSPOS": "STANDING",
    "VSORRES": "86",
    "VSORRESU": "beats/min",
    "VSSTRESC": "86",
    "VSSTRESN": 86.0,
    "VSSTRESU": "beats/min",
    "VSSTAT": "",
    "VSLOC": "",
    "VSLOBXFL": "",
    "VSREPNUM": 3.0,
    "VISITNUM": 7.0,
    "VISIT": "WEEK 6",
    "EPOCH": "TREATMENT",
    "VSDTC": "2013-10-08",
    "VSDY": 41.0
  },
  {
    "STUDYID": "CDISCPILOT01",
    "DOMAIN": "VS",
    "USUBJID": "CDISC003",
    "VSSEQ": 47.0,
    "VSTESTCD": "PULSE",
    "VSTEST": "Pulse Rate",
    "VSPOS": "SUPINE",
    "VSORRES": "62",
    "VSORRESU": "beats/min",
    "VSSTRESC": "62",
    "VSSTRESN": 62.0,
    "VSSTRESU": "beats/min",
    "VSSTAT": "",
    "VSLOC": "",
    "VSLOBXFL": "",
    "VSREPNUM": 1.0,
    "VISITNUM": 8.0,
    "VISIT": "WEEK 8",
    "EPOCH": "TREATMENT",
    "VSDTC": "2013-10-22",
    "VSDY": 55.0
  },
  {
    "STUDYID": "CDISCPILOT01",
    "DOMAIN": "VS",
    "USUBJID": "CDISC003",
    "VSSEQ": 48.0,
    "VSTESTCD": "PULSE",
    "VSTEST": "Pulse Rate",
    "VSPOS": "STANDING",
    "VSORRES": "76",
    "VSORRESU": "beats/min",
    "VSSTRESC": "76",
    "VSSTRESN": 76.0,
    "VSSTRESU": "beats/min",
    "VSSTAT": "",
    "VSLOC": "",
    "VSLOBXFL": "",
    "VSREPNUM": 2.0,
    "VISITNUM": 8.0,
    "VISIT": "WEEK 8",
    "EPOCH": "TREATMENT",
    "VSDTC": "2013-10-22",
    "VSDY": 55.0
  },
  {
    "STUDYID": "CDISCPILOT01",
    "DOMAIN": "VS",
    "USUBJID": "CDISC003",
    "VSSEQ": 49.0,
    "VSTESTCD": "PULSE",
    "VSTEST": "Pulse Rate",
    "VSPOS": "STANDING",
    "VSORRES": "77",
    "VSORRESU": "beats/min",
    "VSSTRESC": "77",
    "VSSTRESN": 77.0,
    "VSSTRESU": "beats/min",
    "VSSTAT": "",
    "VSLOC": "",
    "VSLOBXFL": "",
    "VSREPNUM": 3.0,
    "VISITNUM": 8.0,
    "VISIT": "WEEK 8",
    "EPOCH": "TREATMENT",
    "VSDTC": "2013-10-22",
    "VSDY": 55.0
  },
  {
    "STUDYID": "CDISCPILOT01",
    "DOMAIN": "VS",
    "USUBJID": "CDISC003",
    "VSSEQ": 50.0,
    "VSTESTCD": "PULSE",
    "VSTEST": "Pulse Rate",
    "VSPOS": "SUPINE",
    "VSORRES": "53",
    "VSORRESU": "beats/min",
    "VSSTRESC": "53",
    "VSSTRESN": 53.0,
    "VSSTRESU": "beats/min",
    "VSSTAT": "",
    "VSLOC": "",
    "VSLOBXFL": "",
    "VSREPNUM": 1.0,
    "VISITNUM": 9.0,
    "VISIT": "WEEK 12",
    "EPOCH": "TREATMENT",
    "VSDTC": "2013-11-05",
    "VSDY": 69.0
  },
  {
    "STUDYID": "CDISCPILOT01",
    "DOMAIN": "VS",
    "USUBJID": "CDISC003",
    "VSSEQ": 51.0,
    "VSTESTCD": "PULSE",
    "VSTEST": "Pulse Rate",
    "VSPOS": "STANDING",
    "VSORRES": "55",
    "VSORRESU": "beats/min",
    "VSSTRESC": "55",
    "VSSTRESN": 55.0,
    "VSSTRESU": "beats/min",
    "VSSTAT": "",
    "VSLOC": "",
    "VSLOBXFL": "",
    "VSREPNUM": 2.0,
    "VISITNUM": 9.0,
    "VISIT": "WEEK 12",
    "EPOCH": "TREATMENT",
    "VSDTC": "2013-11-05",
    "VSDY": 69.0
  },
  {
    "STUDYID": "CDISCPILOT01",
    "DOMAIN": "VS",
    "USUBJID": "CDISC003",
    "VSSEQ": 52.0,
    "VSTESTCD": "PULSE",
    "VSTEST": "Pulse Rate",
    "VSPOS": "STANDING",
    "VSORRES": "56",
    "VSORRESU": "beats/min",
    "VSSTRESC": "56",
    "VSSTRESN": 56.0,
    "VSSTRESU": "beats/min",
    "VSSTAT": "",
    "VSLOC": "",
    "VSLOBXFL": "",
    "VSREPNUM": 3.0,
    "VISITNUM": 9.0,
    "VISIT": "WEEK 12",
    "EPOCH": "TREATMENT",
    "VSDTC": "2013-11-05",
    "VSDY": 69.0
  },
  {
    "STUDYID": "CDISCPILOT01",
    "DOMAIN": "VS",
    "USUBJID": "CDISC003",
    "VSSEQ": 53.0,
    "VSTESTCD": "PULSE",
    "VSTEST": "Pulse Rate",
    "VSPOS": "SUPINE",
    "VSORRES": "50",
    "VSORRESU": "beats/min",
    "VSSTRESC": "50",
    "VSSTRESN": 50.0,
    "VSSTRESU": "beats/min",
    "VSSTAT": "",
    "VSLOC": "",
    "VSLOBXFL": "",
    "VSREPNUM": 1.0,
    "VISITNUM": 201.0,
    "VISIT": "EARLY DISCONTINUATION RETRIEVAL",
    "EPOCH": "TREATMENT",
    "VSDTC": "2014-02-13",
    "VSDY": 169.0
  },
  {
    "STUDYID": "CDISCPILOT01",
    "DOMAIN": "VS",
    "USUBJID": "CDISC003",
    "VSSEQ": 54.0,
    "VSTESTCD": "PULSE",
    "VSTEST": "Pulse Rate",
    "VSPOS": "STANDING",
    "VSORRES": "57",
    "VSORRESU": "beats/min",
    "VSSTRESC": "57",
    "VSSTRESN": 57.0,
    "VSSTRESU": "beats/min",
    "VSSTAT": "",
    "VSLOC": "",
    "VSLOBXFL": "",
    "VSREPNUM": 2.0,
    "VISITNUM": 201.0,
    "VISIT": "EARLY DISCONTINUATION RETRIEVAL",
    "EPOCH": "TREATMENT",
    "VSDTC": "2014-02-13",
    "VSDY": 169.0
  },
  {
    "STUDYID": "CDISCPILOT01",
    "DOMAIN": "VS",
    "USUBJID": "CDISC003",
    "VSSEQ": 55.0,
    "VSTESTCD": "PULSE",
    "VSTEST": "Pulse Rate",
    "VSPOS": "STANDING",
    "VSORRES": "60",
    "VSORRESU": "beats/min",
    "VSSTRESC": "60",
    "VSSTRESN": 60.0,
    "VSSTRESU": "beats/min",
    "VSSTAT": "",
    "VSLOC": "",
    "VSLOBXFL": "",
    "VSREPNUM": 3.0,
    "VISITNUM": 201.0,
    "VISIT": "EARLY DISCONTINUATION RETRIEVAL",
    "EPOCH": "TREATMENT",
    "VSDTC": "2014-02-13",
    "VSDY": 169.0
  },
  {
    "STUDYID": "CDISCPILOT01",
    "DOMAIN": "VS",
    "USUBJID": "CDISC003",
    "VSSEQ": 56.0,
    "VSTESTCD": "SYSBP",
    "VSTEST": "Systolic Blood Pressure",
    "VSPOS": "SUPINE",
    "VSORRES": "115",
    "VSORRESU": "mmHg",
    "VSSTRESC": "115",
    "VSSTRESN": 115.0,
    "VSSTRESU": "mmHg",
    "VSSTAT": "",
    "VSLOC": "",
    "VSLOBXFL": "",
    "VSREPNUM": 1.0,
    "VISITNUM": 1.0,
    "VISIT": "SCREENING 1",
    "EPOCH": "SCREENING",
    "VSDTC": "2013-08-20",
    "VSDY": -9.0
  },
  {
    "STUDYID": "CDISCPILOT01",
    "DOMAIN": "VS",
    "USUBJID": "CDISC003",
    "VSSEQ": 57.0,
    "VSTESTCD": "SYSBP",
    "VSTEST": "Systolic Blood Pressure",
    "VSPOS": "STANDING",
    "VSORRES": "122",
    "VSORRESU": "mmHg",
    "VSSTRESC": "122",
    "VSSTRESN": 122.0,
    "VSSTRESU": "mmHg",
    "VSSTAT": "",
    "VSLOC": "",
    "VSLOBXFL": "",
    "VSREPNUM": 2.0,
    "VISITNUM": 1.0,
    "VISIT": "SCREENING 1",
    "EPOCH": "SCREENING",
    "VSDTC": "2013-08-20",
    "VSDY": -9.0
  },
  {
    "STUDYID": "CDISCPILOT01",
    "DOMAIN": "VS",
    "USUBJID": "CDISC003",
    "VSSEQ": 58.0,
    "VSTESTCD": "SYSBP",
    "VSTEST": "Systolic Blood Pressure",
    "VSPOS": "STANDING",
    "VSORRES": "123",
    "VSORRESU": "mmHg",
    "VSSTRESC": "123",
    "VSSTRESN": 123.0,
    "VSSTRESU": "mmHg",
    "VSSTAT": "",
    "VSLOC": "",
    "VSLOBXFL": "",
    "VSREPNUM": 3.0,
    "VISITNUM": 1.0,
    "VISIT": "SCREENING 1",
    "EPOCH": "SCREENING",
    "VSDTC": "2013-08-20",
    "VSDY": -9.0
  },
  {
    "STUDYID": "CDISCPILOT01",
    "DOMAIN": "VS",
    "USUBJID": "CDISC003",
    "VSSEQ": 59.0,
    "VSTESTCD": "SYSBP",
    "VSTEST": "Systolic Blood Pressure",
    "VSPOS": "SUPINE",
    "VSORRES": "121",
    "VSORRESU": "mmHg",
    "VSSTRESC": "121",
    "VSSTRESN": 121.0,
    "VSSTRESU": "mmHg",
    "VSSTAT": "",
    "VSLOC": "",
    "VSLOBXFL": "",
    "VSREPNUM": 1.0,
    "VISITNUM": 2.0,
    "VISIT": "SCREENING 2",
    "EPOCH": "SCREENING",
    "VSDTC": "2013-08-27",
    "VSDY": -2.0
  },
  {
    "STUDYID": "CDISCPILOT01",
    "DOMAIN": "VS",
    "USUBJID": "CDISC003",
    "VSSEQ": 60.0,
    "VSTESTCD": "SYSBP",
    "VSTEST": "Systolic Blood Pressure",
    "VSPOS": "STANDING",
    "VSORRES": "106",
    "VSORRESU": "mmHg",
    "VSSTRESC": "106",
    "VSSTRESN": 106.0,
    "VSSTRESU": "mmHg",
    "VSSTAT": "",
    "VSLOC": "",
    "VSLOBXFL": "",
    "VSREPNUM": 2.0,
    "VISITNUM": 2.0,
    "VISIT": "SCREENING 2",
    "EPOCH": "SCREENING",
    "VSDTC": "2013-08-27",
    "VSDY": -2.0
  },
  {
    "STUDYID": "CDISCPILOT01",
    "DOMAIN": "VS",
    "USUBJID": "CDISC003",
    "VSSEQ": 61.0,
    "VSTESTCD": "SYSBP",
    "VSTEST": "Systolic Blood Pressure",
    "VSPOS": "STANDING",
    "VSORRES": "115",
    "VSORRESU": "mmHg",
    "VSSTRESC": "115",
    "VSSTRESN": 115.0,
    "VSSTRESU": "mmHg",
    "VSSTAT": "",
    "VSLOC": "",
    "VSLOBXFL": "",
    "VSREPNUM": 3.0,
    "VISITNUM": 2.0,
    "VISIT": "SCREENING 2",
    "EPOCH": "SCREENING",
    "VSDTC": "2013-08-27",
    "VSDY": -2.0
  },
  {
    "STUDYID": "CDISCPILOT01",
    "DOMAIN": "VS",
    "USUBJID": "CDISC003",
    "VSSEQ": 62.0,
    "VSTESTCD": "SYSBP",
    "VSTEST": "Systolic Blood Pressure",
    "VSPOS": "SUPINE",
    "VSORRES": "131",
    "VSORRESU": "mmHg",
    "VSSTRESC": "131",
    "VSSTRESN": 131.0,
    "VSSTRESU": "mmHg",
    "VSSTAT": "",
    "VSLOC": "",
    "VSLOBXFL": "",
    "VSREPNUM": 1.0,
    "VISITNUM": 3.0,
    "VISIT": "BASELINE",
    "EPOCH": "SCREENING",
    "VSDTC": "2013-08-29",
    "VSDY": 1.0
  },
  {
    "STUDYID": "CDISCPILOT01",
    "DOMAIN": "VS",
    "USUBJID": "CDISC003",
    "VSSEQ": 63.0,
    "VSTESTCD": "SYSBP",
    "VSTEST": "Systolic Blood Pressure",
    "VSPOS": "STANDING",
    "VSORRES": "137",
    "VSORRESU": "mmHg",
    "VSSTRESC": "137",
    "VSSTRESN": 137.0,
    "VSSTRESU": "mmHg",
    "VSSTAT": "",
    "VSLOC": "",
    "VSLOBXFL": "",
    "VSREPNUM": 2.0,
    "VISITNUM": 3.0,
    "VISIT": "BASELINE",
    "EPOCH": "SCREENING",
    "VSDTC": "2013-08-29",
    "VSDY": 1.0
  },
  {
    "STUDYID": "CDISCPILOT01",
    "DOMAIN": "VS",
    "USUBJID": "CDISC003",
    "VSSEQ": 64.0,
    "VSTESTCD": "SYSBP",
    "VSTEST": "Systolic Blood Pressure",
    "VSPOS": "STANDING",
    "VSORRES": "136",
    "VSORRESU": "mmHg",
    "VSSTRESC": "136",
    "VSSTRESN": 136.0,
    "VSSTRESU": "mmHg",
    "VSSTAT": "",
    "VSLOC": "",
    "VSLOBXFL": "Y",
    "VSREPNUM": 3.0,
    "VISITNUM": 3.0,
    "VISIT": "BASELINE",
    "EPOCH": "SCREENING",
    "VSDTC": "2013-08-29",
    "VSDY": 1.0
  },
  {
    "STUDYID": "CDISCPILOT01",
    "DOMAIN": "VS",
    "USUBJID": "CDISC003",
    "VSSEQ": 65.0,
    "VSTESTCD": "SYSBP",
    "VSTEST": "Systolic Blood Pressure",
    "VSPOS": "SUPINE",
    "VSORRES": "114",
    "VSORRESU": "mmHg",
    "VSSTRESC": "114",
    "VSSTRESN": 114.0,
    "VSSTRESU": "mmHg",
    "VSSTAT": "",
    "VSLOC": "",
    "VSLOBXFL": "",
    "VSREPNUM": 1.0,
    "VISITNUM": 4.0,
    "VISIT": "WEEK 2",
    "EPOCH": "TREATMENT",
    "VSDTC": "2013-09-15",
    "VSDY": 18.0
  },
  {
    "STUDYID": "CDISCPILOT01",
    "DOMAIN": "VS",
    "USUBJID": "CDISC003",
    "VSSEQ": 66.0,
    "VSTESTCD": "SYSBP",
    "VSTEST": "Systolic Blood Pressure",
    "VSPOS": "STANDING",
    "VSORRES": "114",
    "VSORRESU": "mmHg",
    "VSSTRESC": "114",
    "VSSTRESN": 114.0,
    "VSSTRESU": "mmHg",
    "VSSTAT": "",
    "VSLOC": "",
    "VSLOBXFL": "",
    "VSREPNUM": 2.0,
    "VISITNUM": 4.0,
    "VISIT": "WEEK 2",
    "EPOCH": "TREATMENT",
    "VSDTC": "2013-09-15",
    "VSDY": 18.0
  },
  {
    "STUDYID": "CDISCPILOT01",
    "DOMAIN": "VS",
    "USUBJID": "CDISC003",
    "VSSEQ": 67.0,
    "VSTESTCD": "SYSBP",
    "VSTEST": "Systolic Blood Pressure",
    "VSPOS": "STANDING",
    "VSORRES": "123",
    "VSORRESU": "mmHg",
    "VSSTRESC": "123",
    "VSSTRESN": 123.0,
    "VSSTRESU": "mmHg",
    "VSSTAT": "",
    "VSLOC": "",
    "VSLOBXFL": "",
    "VSREPNUM": 3.0,
    "VISITNUM": 4.0,
    "VISIT": "WEEK 2",
    "EPOCH": "TREATMENT",
    "VSDTC": "2013-09-15",
    "VSDY": 18.0
  },
  {
    "STUDYID": "CDISCPILOT01",
    "DOMAIN": "VS",
    "USUBJID": "CDISC003",
    "VSSEQ": 68.0,
    "VSTESTCD": "SYSBP",
    "VSTEST": "Systolic Blood Pressure",
    "VSPOS": "SUPINE",
    "VSORRES": "123",
    "VSORRESU": "mmHg",
    "VSSTRESC": "123",
    "VSSTRESN": 123.0,
    "VSSTRESU": "mmHg",
    "VSSTAT": "",
    "VSLOC": "",
    "VSLOBXFL": "",
    "VSREPNUM": 1.0,
    "VISITNUM": 5.0,
    "VISIT": "WEEK 4",
    "EPOCH": "TREATMENT",
    "VSDTC": "2013-09-24",
    "VSDY": 27.0
  },
  {
    "STUDYID": "CDISCPILOT01",
    "DOMAIN": "VS",
    "USUBJID": "CDISC003",
    "VSSEQ": 69.0,
    "VSTESTCD": "SYSBP",
    "VSTEST": "Systolic Blood Pressure",
    "VSPOS": "STANDING",
    "VSORRES": "115",
    "VSORRESU": "mmHg",
    "VSSTRESC": "115",
    "VSSTRESN": 115.0,
    "VSSTRESU": "mmHg",
    "VSSTAT": "",
    "VSLOC": "",
    "VSLOBXFL": "",
    "VSREPNUM": 2.0,
    "VISITNUM": 5.0,
    "VISIT": "WEEK 4",
    "EPOCH": "TREATMENT",
    "VSDTC": "2013-09-24",
    "VSDY": 27.0
  },
  {
    "STUDYID": "CDISCPILOT01",
    "DOMAIN": "VS",
    "USUBJID": "CDISC003",
    "VSSEQ": 70.0,
    "VSTESTCD": "SYSBP",
    "VSTEST": "Systolic Blood Pressure",
    "VSPOS": "STANDING",
    "VSORRES": "131",
    "VSORRESU": "mmHg",
    "VSSTRESC": "131",
    "VSSTRESN": 131.0,
    "VSSTRESU": "mmHg",
    "VSSTAT": "",
    "VSLOC": "",
    "VSLOBXFL": "",
    "VSREPNUM": 3.0,
    "VISITNUM": 5.0,
    "VISIT": "WEEK 4",
    "EPOCH": "TREATMENT",
    "VSDTC": "2013-09-24",
    "VSDY": 27.0
  },
  {
    "STUDYID": "CDISCPILOT01",
    "DOMAIN": "VS",
    "USUBJID": "CDISC003",
    "VSSEQ": 71.0,
    "VSTESTCD": "SYSBP",
    "VSTEST": "Systolic Blood Pressure",
    "VSPOS": "SUPINE",
    "VSORRES": "108",
    "VSORRESU": "mmHg",
    "VSSTRESC": "108",
    "VSSTRESN": 108.0,
    "VSSTRESU": "mmHg",
    "VSSTAT": "",
    "VSLOC": "",
    "VSLOBXFL": "",
    "VSREPNUM": 1.0,
    "VISITNUM": 7.0,
    "VISIT": "WEEK 6",
    "EPOCH": "TREATMENT",
    "VSDTC": "2013-10-08",
    "VSDY": 41.0
  },
  {
    "STUDYID": "CDISCPILOT01",
    "DOMAIN": "VS",
    "USUBJID": "CDISC003",
    "VSSEQ": 72.0,
    "VSTESTCD": "SYSBP",
    "VSTEST": "Systolic Blood Pressure",
    "VSPOS": "STANDING",
    "VSORRES": "115",
    "VSORRESU": "mmHg",
    "VSSTRESC": "115",
    "VSSTRESN": 115.0,
    "VSSTRESU": "mmHg",
    "VSSTAT": "",
    "VSLOC": "",
    "VSLOBXFL": "",
    "VSREPNUM": 2.0,
    "VISITNUM": 7.0,
    "VISIT": "WEEK 6",
    "EPOCH": "TREATMENT",
    "VSDTC": "2013-10-08",
    "VSDY": 41.0
  },
  {
    "STUDYID": "CDISCPILOT01",
    "DOMAIN": "VS",
    "USUBJID": "CDISC003",
    "VSSEQ": 73.0,
    "VSTESTCD": "SYSBP",
    "VSTEST": "Systolic Blood Pressure",
    "VSPOS": "STANDING",
    "VSORRES": "123",
    "VSORRESU": "mmHg",
    "VSSTRESC": "123",
    "VSSTRESN": 123.0,
    "VSSTRESU": "mmHg",
    "VSSTAT": "",
    "VSLOC": "",
    "VSLOBXFL": "",
    "VSREPNUM": 3.0,
    "VISITNUM": 7.0,
    "VISIT": "WEEK 6",
    "EPOCH": "TREATMENT",
    "VSDTC": "2013-10-08",
    "VSDY": 41.0
  },
  {
    "STUDYID": "CDISCPILOT01",
    "DOMAIN": "VS",
    "USUBJID": "CDISC003",
    "VSSEQ": 74.0,
    "VSTESTCD": "SYSBP",
    "VSTEST": "Systolic Blood Pressure",
    "VSPOS": "SUPINE",
    "VSORRES": "115",
    "VSORRESU": "mmHg",
    "VSSTRESC": "115",
    "VSSTRESN": 115.0,
    "VSSTRESU": "mmHg",
    "VSSTAT": "",
    "VSLOC": "",
    "VSLOBXFL": "",
    "VSREPNUM": 1.0,
    "VISITNUM": 8.0,
    "VISIT": "WEEK 8",
    "EPOCH": "TREATMENT",
    "VSDTC": "2013-10-22",
    "VSDY": 55.0
  },
  {
    "STUDYID": "CDISCPILOT01",
    "DOMAIN": "VS",
    "USUBJID": "CDISC003",
    "VSSEQ": 75.0,
    "VSTESTCD": "SYSBP",
    "VSTEST": "Systolic Blood Pressure",
    "VSPOS": "STANDING",
    "VSORRES": "115",
    "VSORRESU": "mmHg",
    "VSSTRESC": "115",
    "VSSTRESN": 115.0,
    "VSSTRESU": "mmHg",
    "VSSTAT": "",
    "VSLOC": "",
    "VSLOBXFL": "",
    "VSREPNUM": 2.0,
    "VISITNUM": 8.0,
    "VISIT": "WEEK 8",
    "EPOCH": "TREATMENT",
    "VSDTC": "2013-10-22",
    "VSDY": 55.0
  },
  {
    "STUDYID": "CDISCPILOT01",
    "DOMAIN": "VS",
    "USUBJID": "CDISC003",
    "VSSEQ": 76.0,
    "VSTESTCD": "SYSBP",
    "VSTEST": "Systolic Blood Pressure",
    "VSPOS": "STANDING",
    "VSORRES": "114",
    "VSORRESU": "mmHg",
    "VSSTRESC": "114",
    "VSSTRESN": 114.0,
    "VSSTRESU": "mmHg",
    "VSSTAT": "",
    "VSLOC": "",
    "VSLOBXFL": "",
    "VSREPNUM": 3.0,
    "VISITNUM": 8.0,
    "VISIT": "WEEK 8",
    "EPOCH": "TREATMENT",
    "VSDTC": "2013-10-22",
    "VSDY": 55.0
  },
  {
    "STUDYID": "CDISCPILOT01",
    "DOMAIN": "VS",
    "USUBJID": "CDISC003",
    "VSSEQ": 77.0,
    "VSTESTCD": "SYSBP",
    "VSTEST": "Systolic Blood Pressure",
    "VSPOS": "SUPINE",
    "VSORRES": "115",
    "VSORRESU": "mmHg",
    "VSSTRESC": "115",
    "VSSTRESN": 115.0,
    "VSSTRESU": "mmHg",
    "VSSTAT": "",
    "VSLOC": "",
    "VSLOBXFL": "",
    "VSREPNUM": 1.0,
    "VISITNUM": 9.0,
    "VISIT": "WEEK 12",
    "EPOCH": "TREATMENT",
    "VSDTC": "2013-11-05",
    "VSDY": 69.0
  },
  {
    "STUDYID": "CDISCPILOT01",
    "DOMAIN": "VS",
    "USUBJID": "CDISC003",
    "VSSEQ": 78.0,
    "VSTESTCD": "SYSBP",
    "VSTEST": "Systolic Blood Pressure",
    "VSPOS": "STANDING",
    "VSORRES": "124",
    "VSORRESU": "mmHg",
    "VSSTRESC": "124",
    "VSSTRESN": 124.0,
    "VSSTRESU": "mmHg",
    "VSSTAT": "",
    "VSLOC": "",
    "VSLOBXFL": "",
    "VSREPNUM": 2.0,
    "VISITNUM": 9.0,
    "VISIT": "WEEK 12",
    "EPOCH": "TREATMENT",
    "VSDTC": "2013-11-05",
    "VSDY": 69.0
  },
  {
    "STUDYID": "CDISCPILOT01",
    "DOMAIN": "VS",
    "USUBJID": "CDISC003",
    "VSSEQ": 79.0,
    "VSTESTCD": "SYSBP",
    "VSTEST": "Systolic Blood Pressure",
    "VSPOS": "STANDING",
    "VSORRES": "131",
    "VSORRESU": "mmHg",
    "VSSTRESC": "131",
    "VSSTRESN": 131.0,
    "VSSTRESU": "mmHg",
    "VSSTAT": "",
    "VSLOC": "",
    "VSLOBXFL": "",
    "VSREPNUM": 3.0,
    "VISITNUM": 9.0,
    "VISIT": "WEEK 12",
    "EPOCH": "TREATMENT",
    "VSDTC": "2013-11-05",
    "VSDY": 69.0
  },
  {
    "STUDYID": "CDISCPILOT01",
    "DOMAIN": "VS",
    "USUBJID": "CDISC003",
    "VSSEQ": 80.0,
    "VSTESTCD": "SYSBP",
    "VSTEST": "Systolic Blood Pressure",
    "VSPOS": "SUPINE",
    "VSORRES": "122",
    "VSORRESU": "mmHg",
    "VSSTRESC": "122",
    "VSSTRESN": 122.0,
    "VSSTRESU": "mmHg",
    "VSSTAT": "",
    "VSLOC": "",
    "VSLOBXFL": "",
    "VSREPNUM": 1.0,
    "VISITNUM": 201.0,
    "VISIT": "EARLY DISCONTINUATION RETRIEVAL",
    "EPOCH": "TREATMENT",
    "VSDTC": "2014-02-13",
    "VSDY": 169.0
  },
  {
    "STUDYID": "CDISCPILOT01",
    "DOMAIN": "VS",
    "USUBJID": "CDISC003",
    "VSSEQ": 81.0,
    "VSTESTCD": "SYSBP",
    "VSTEST": "Systolic Blood Pressure",
    "VSPOS": "STANDING",
    "VSORRES": "117",
    "VSORRESU": "mmHg",
    "VSSTRESC": "117",
    "VSSTRESN": 117.0,
    "VSSTRESU": "mmHg",
    "VSSTAT": "",
    "VSLOC": "",
    "VSLOBXFL": "",
    "VSREPNUM": 2.0,
    "VISITNUM": 201.0,
    "VISIT": "EARLY DISCONTINUATION RETRIEVAL",
    "EPOCH": "TREATMENT",
    "VSDTC": "2014-02-13",
    "VSDY": 169.0
  },
  {
    "STUDYID": "CDISCPILOT01",
    "DOMAIN": "VS",
    "USUBJID": "CDISC003",
    "VSSEQ": 82.0,
    "VSTESTCD": "SYSBP",
    "VSTEST": "Systolic Blood Pressure",
    "VSPOS": "STANDING",
    "VSORRES": "131",
    "VSORRESU": "mmHg",
    "VSSTRESC": "131",
    "VSSTRESN": 131.0,
    "VSSTRESU": "mmHg",
    "VSSTAT": "",
    "VSLOC": "",
    "VSLOBXFL": "",
    "VSREPNUM": 3.0,
    "VISITNUM": 201.0,
    "VISIT": "EARLY DISCONTINUATION RETRIEVAL",
    "EPOCH": "TREATMENT",
    "VSDTC": "2014-02-13",
    "VSDY": 169.0
  },
  {
    "STUDYID": "CDISCPILOT01",
    "DOMAIN": "VS",
    "USUBJID": "CDISC003",
    "VSSEQ": 83.0,
    "VSTESTCD": "TEMP",
    "VSTEST": "Temperature",
    "VSPOS": "",
    "VSORRES": "97.7",
    "VSORRESU": "F",
    "VSSTRESC": "36.5",
    "VSSTRESN": 36.5,
    "VSSTRESU": "C",
    "VSSTAT": "",
    "VSLOC": "ORAL CAVITY",
    "VSLOBXFL": "",
    "VSREPNUM": "",
    "VISITNUM": 1.0,
    "VISIT": "SCREENING 1",
    "EPOCH": "SCREENING",
    "VSDTC": "2013-08-20",
    "VSDY": -9.0
  },
  {
    "STUDYID": "CDISCPILOT01",
    "DOMAIN": "VS",
    "USUBJID": "CDISC003",
    "VSSEQ": 84.0,
    "VSTESTCD": "TEMP",
    "VSTEST": "Temperature",
    "VSPOS": "",
    "VSORRES": "98.9",
    "VSORRESU": "F",
    "VSSTRESC": "37.17",
    "VSSTRESN": 37.17,
    "VSSTRESU": "C",
    "VSSTAT": "",
    "VSLOC": "ORAL CAVITY",
    "VSLOBXFL": "",
    "VSREPNUM": "",
    "VISITNUM": 2.0,
    "VISIT": "SCREENING 2",
    "EPOCH": "SCREENING",
    "VSDTC": "2013-08-27",
    "VSDY": -2.0
  },
  {
    "STUDYID": "CDISCPILOT01",
    "DOMAIN": "VS",
    "USUBJID": "CDISC003",
    "VSSEQ": 85.0,
    "VSTESTCD": "TEMP",
    "VSTEST": "Temperature",
    "VSPOS": "",
    "VSORRES": "96.3",
    "VSORRESU": "F",
    "VSSTRESC": "35.72",
    "VSSTRESN": 35.72,
    "VSSTRESU": "C",
    "VSSTAT": "",
    "VSLOC": "ORAL CAVITY",
    "VSLOBXFL": "Y",
    "VSREPNUM": "",
    "VISITNUM": 3.0,
    "VISIT": "BASELINE",
    "EPOCH": "SCREENING",
    "VSDTC": "2013-08-29",
    "VSDY": 1.0
  },
  {
    "STUDYID": "CDISCPILOT01",
    "DOMAIN": "VS",
    "USUBJID": "CDISC003",
    "VSSEQ": 86.0,
    "VSTESTCD": "TEMP",
    "VSTEST": "Temperature",
    "VSPOS": "",
    "VSORRES": "98.3",
    "VSORRESU": "F",
    "VSSTRESC": "36.83",
    "VSSTRESN": 36.83,
    "VSSTRESU": "C",
    "VSSTAT": "",
    "VSLOC": "ORAL CAVITY",
    "VSLOBXFL": "",
    "VSREPNUM": "",
    "VISITNUM": 4.0,
    "VISIT": "WEEK 2",
    "EPOCH": "TREATMENT",
    "VSDTC": "2013-09-15",
    "VSDY": 18.0
  },
  {
    "STUDYID": "CDISCPILOT01",
    "DOMAIN": "VS",
    "USUBJID": "CDISC003",
    "VSSEQ": 87.0,
    "VSTESTCD": "TEMP",
    "VSTEST": "Temperature",
    "VSPOS": "",
    "VSORRES": "97.1",
    "VSORRESU": "F",
    "VSSTRESC": "36.17",
    "VSSTRESN": 36.17,
    "VSSTRESU": "C",
    "VSSTAT": "",
    "VSLOC": "ORAL CAVITY",
    "VSLOBXFL": "",
    "VSREPNUM": "",
    "VISITNUM": 5.0,
    "VISIT": "WEEK 4",
    "EPOCH": "TREATMENT",
    "VSDTC": "2013-09-24",
    "VSDY": 27.0
  },
  {
    "STUDYID": "CDISCPILOT01",
    "DOMAIN": "VS",
    "USUBJID": "CDISC003",
    "VSSEQ": 88.0,
    "VSTESTCD": "TEMP",
    "VSTEST": "Temperature",
    "VSPOS": "",
    "VSORRES": "97.9",
    "VSORRESU": "F",
    "VSSTRESC": "36.61",
    "VSSTRESN": 36.61,
    "VSSTRESU": "C",
    "VSSTAT": "",
    "VSLOC": "ORAL CAVITY",
    "VSLOBXFL": "",
    "VSREPNUM": "",
    "VISITNUM": 7.0,
    "VISIT": "WEEK 6",
    "EPOCH": "TREATMENT",
    "VSDTC": "2013-10-08",
    "VSDY": 41.0
  },
  {
    "STUDYID": "CDISCPILOT01",
    "DOMAIN": "VS",
    "USUBJID": "CDISC003",
    "VSSEQ": 89.0,
    "VSTESTCD": "TEMP",
    "VSTEST": "Temperature",
    "VSPOS": "",
    "VSORRES": "98.1",
    "VSORRESU": "F",
    "VSSTRESC": "36.72",
    "VSSTRESN": 36.72,
    "VSSTRESU": "C",
    "VSSTAT": "",
    "VSLOC": "ORAL CAVITY",
    "VSLOBXFL": "",
    "VSREPNUM": "",
    "VISITNUM": 8.0,
    "VISIT": "WEEK 8",
    "EPOCH": "TREATMENT",
    "VSDTC": "2013-10-22",
    "VSDY": 55.0
  },
  {
    "STUDYID": "CDISCPILOT01",
    "DOMAIN": "VS",
    "USUBJID": "CDISC003",
    "VSSEQ": 90.0,
    "VSTESTCD": "TEMP",
    "VSTEST": "Temperature",
    "VSPOS": "",
    "VSORRES": "97.9",
    "VSORRESU": "F",
    "VSSTRESC": "36.61",
    "VSSTRESN": 36.61,
    "VSSTRESU": "C",
    "VSSTAT": "",
    "VSLOC": "ORAL CAVITY",
    "VSLOBXFL": "",
    "VSREPNUM": "",
    "VISITNUM": 9.0,
    "VISIT": "WEEK 12",
    "EPOCH": "TREATMENT",
    "VSDTC": "2013-11-05",
    "VSDY": 69.0
  },
  {
    "STUDYID": "CDISCPILOT01",
    "DOMAIN": "VS",
    "USUBJID": "CDISC003",
    "VSSEQ": 91.0,
    "VSTESTCD": "TEMP",
    "VSTEST": "Temperature",
    "VSPOS": "",
    "VSORRES": "97.4",
    "VSORRESU": "F",
    "VSSTRESC": "36.33",
    "VSSTRESN": 36.33,
    "VSSTRESU": "C",
    "VSSTAT": "",
    "VSLOC": "ORAL CAVITY",
    "VSLOBXFL": "",
    "VSREPNUM": "",
    "VISITNUM": 201.0,
    "VISIT": "EARLY DISCONTINUATION RETRIEVAL",
    "EPOCH": "TREATMENT",
    "VSDTC": "2014-02-13",
    "VSDY": 169.0
  },
  {
    "STUDYID": "CDISCPILOT01",
    "DOMAIN": "VS",
    "USUBJID": "CDISC003",
    "VSSEQ": 92.0,
    "VSTESTCD": "WEIGHT",
    "VSTEST": "Weight",
    "VSPOS": "",
    "VSORRES": "179.0",
    "VSORRESU": "LB",
    "VSSTRESC": "81.19",
    "VSSTRESN": 81.19,
    "VSSTRESU": "kg",
    "VSSTAT": "",
    "VSLOC": "",
    "VSLOBXFL": "",
    "VSREPNUM": "",
    "VISITNUM": 1.0,
    "VISIT": "SCREENING 1",
    "EPOCH": "SCREENING",
    "VSDTC": "2013-08-20",
    "VSDY": -9.0
  },
  {
    "STUDYID": "CDISCPILOT01",
    "DOMAIN": "VS",
    "USUBJID": "CDISC003",
    "VSSEQ": 93.0,
    "VSTESTCD": "WEIGHT",
    "VSTEST": "Weight",
    "VSPOS": "",
    "VSORRES": "181.0",
    "VSORRESU": "LB",
    "VSSTRESC": "82.1",
    "VSSTRESN": 82.1,
    "VSSTRESU": "kg",
    "VSSTAT": "",
    "VSLOC": "",
    "VSLOBXFL": "Y",
    "VSREPNUM": "",
    "VISITNUM": 3.0,
    "VISIT": "BASELINE",
    "EPOCH": "SCREENING",
    "VSDTC": "2013-08-29",
    "VSDY": 1.0
  },
  {
    "STUDYID": "CDISCPILOT01",
    "DOMAIN": "VS",
    "USUBJID": "CDISC003",
    "VSSEQ": 94.0,
    "VSTESTCD": "WEIGHT",
    "VSTEST": "Weight",
    "VSPOS": "",
    "VSORRES": "179.0",
    "VSORRESU": "LB",
    "VSSTRESC": "81.19",
    "VSSTRESN": 81.19,
    "VSSTRESU": "kg",
    "VSSTAT": "",
    "VSLOC": "",
    "VSLOBXFL": "",
    "VSREPNUM": "",
    "VISITNUM": 4.0,
    "VISIT": "WEEK 2",
    "EPOCH": "TREATMENT",
    "VSDTC": "2013-09-15",
    "VSDY": 18.0
  },
  {
    "STUDYID": "CDISCPILOT01",
    "DOMAIN": "VS",
    "USUBJID": "CDISC003",
    "VSSEQ": 95.0,
    "VSTESTCD": "WEIGHT",
    "VSTEST": "Weight",
    "VSPOS": "",
    "VSORRES": "182.0",
    "VSORRESU": "LB",
    "VSSTRESC": "82.56",
    "VSSTRESN": 82.56,
    "VSSTRESU": "kg",
    "VSSTAT": "",
    "VSLOC": "",
    "VSLOBXFL": "",
    "VSREPNUM": "",
    "VISITNUM": 5.0,
    "VISIT": "WEEK 4",
    "EPOCH": "TREATMENT",
    "VSDTC": "2013-09-24",
    "VSDY": 27.0
  },
  {
    "STUDYID": "CDISCPILOT01",
    "DOMAIN": "VS",
    "USUBJID": "CDISC003",
    "VSSEQ": 96.0,
    "VSTESTCD": "WEIGHT",
    "VSTEST": "Weight",
    "VSPOS": "",
    "VSORRES": "178.0",
    "VSORRESU": "LB",
    "VSSTRESC": "80.74",
    "VSSTRESN": 80.74,
    "VSSTRESU": "kg",
    "VSSTAT": "",
    "VSLOC": "",
    "VSLOBXFL": "",
    "VSREPNUM": "",
    "VISITNUM": 7.0,
    "VISIT": "WEEK 6",
    "EPOCH": "TREATMENT",
    "VSDTC": "2013-10-08",
    "VSDY": 41.0
  },
  {
    "STUDYID": "CDISCPILOT01",
    "DOMAIN": "VS",
    "USUBJID": "CDISC003",
    "VSSEQ": 97.0,
    "VSTESTCD": "WEIGHT",
    "VSTEST": "Weight",
    "VSPOS": "",
    "VSORRES": "181.0",
    "VSORRESU": "LB",
    "VSSTRESC": "82.1",
    "VSSTRESN": 82.1,
    "VSSTRESU": "kg",
    "VSSTAT": "",
    "VSLOC": "",
    "VSLOBXFL": "",
    "VSREPNUM": "",
    "VISITNUM": 8.0,
    "VISIT": "WEEK 8",
    "EPOCH": "TREATMENT",
    "VSDTC": "2013-10-22",
    "VSDY": 55.0
  },
  {
    "STUDYID": "CDISCPILOT01",
    "DOMAIN": "VS",
    "USUBJID": "CDISC003",
    "VSSEQ": 98.0,
    "VSTESTCD": "WEIGHT",
    "VSTEST": "Weight",
    "VSPOS": "",
    "VSORRES": "181.0",
    "VSORRESU": "LB",
    "VSSTRESC": "82.1",
    "VSSTRESN": 82.1,
    "VSSTRESU": "kg",
    "VSSTAT": "",
    "VSLOC": "",
    "VSLOBXFL": "",
    "VSREPNUM": "",
    "VISITNUM": 9.0,
    "VISIT": "WEEK 12",
    "EPOCH": "TREATMENT",
    "VSDTC": "2013-11-05",
    "VSDY": 69.0
  },
  {
    "STUDYID": "CDISCPILOT01",
    "DOMAIN": "VS",
    "USUBJID": "CDISC004",
    "VSSEQ": 1.0,
    "VSTESTCD": "DIABP",
    "VSTEST": "Diastolic Blood Pressure",
    "VSPOS": "SUPINE",
    "VSORRES": "47",
    "VSORRESU": "mmHg",
    "VSSTRESC": "47",
    "VSSTRESN": 47.0,
    "VSSTRESU": "mmHg",
    "VSSTAT": "",
    "VSLOC": "",
    "VSLOBXFL": "",
    "VSREPNUM": 1.0,
    "VISITNUM": 1.0,
    "VISIT": "SCREENING 1",
    "EPOCH": "SCREENING",
    "VSDTC": "2013-10-01",
    "VSDY": -7.0
  },
  {
    "STUDYID": "CDISCPILOT01",
    "DOMAIN": "VS",
    "USUBJID": "CDISC004",
    "VSSEQ": 2.0,
    "VSTESTCD": "DIABP",
    "VSTEST": "Diastolic Blood Pressure",
    "VSPOS": "STANDING",
    "VSORRES": "55",
    "VSORRESU": "mmHg",
    "VSSTRESC": "55",
    "VSSTRESN": 55.0,
    "VSSTRESU": "mmHg",
    "VSSTAT": "",
    "VSLOC": "",
    "VSLOBXFL": "",
    "VSREPNUM": 2.0,
    "VISITNUM": 1.0,
    "VISIT": "SCREENING 1",
    "EPOCH": "SCREENING",
    "VSDTC": "2013-10-01",
    "VSDY": -7.0
  },
  {
    "STUDYID": "CDISCPILOT01",
    "DOMAIN": "VS",
    "USUBJID": "CDISC004",
    "VSSEQ": 3.0,
    "VSTESTCD": "DIABP",
    "VSTEST": "Diastolic Blood Pressure",
    "VSPOS": "STANDING",
    "VSORRES": "56",
    "VSORRESU": "mmHg",
    "VSSTRESC": "56",
    "VSSTRESN": 56.0,
    "VSSTRESU": "mmHg",
    "VSSTAT": "",
    "VSLOC": "",
    "VSLOBXFL": "",
    "VSREPNUM": 3.0,
    "VISITNUM": 1.0,
    "VISIT": "SCREENING 1",
    "EPOCH": "SCREENING",
    "VSDTC": "2013-10-01",
    "VSDY": -7.0
  },
  {
    "STUDYID": "CDISCPILOT01",
    "DOMAIN": "VS",
    "USUBJID": "CDISC004",
    "VSSEQ": 4.0,
    "VSTESTCD": "DIABP",
    "VSTEST": "Diastolic Blood Pressure",
    "VSPOS": "SUPINE",
    "VSORRES": "56",
    "VSORRESU": "mmHg",
    "VSSTRESC": "56",
    "VSSTRESN": 56.0,
    "VSSTRESU": "mmHg",
    "VSSTAT": "",
    "VSLOC": "",
    "VSLOBXFL": "",
    "VSREPNUM": 1.0,
    "VISITNUM": 2.0,
    "VISIT": "SCREENING 2",
    "EPOCH": "SCREENING",
    "VSDTC": "2013-10-06",
    "VSDY": -2.0
  },
  {
    "STUDYID": "CDISCPILOT01",
    "DOMAIN": "VS",
    "USUBJID": "CDISC004",
    "VSSEQ": 5.0,
    "VSTESTCD": "DIABP",
    "VSTEST": "Diastolic Blood Pressure",
    "VSPOS": "STANDING",
    "VSORRES": "56",
    "VSORRESU": "mmHg",
    "VSSTRESC": "56",
    "VSSTRESN": 56.0,
    "VSSTRESU": "mmHg",
    "VSSTAT": "",
    "VSLOC": "",
    "VSLOBXFL": "",
    "VSREPNUM": 2.0,
    "VISITNUM": 2.0,
    "VISIT": "SCREENING 2",
    "EPOCH": "SCREENING",
    "VSDTC": "2013-10-06",
    "VSDY": -2.0
  },
  {
    "STUDYID": "CDISCPILOT01",
    "DOMAIN": "VS",
    "USUBJID": "CDISC004",
    "VSSEQ": 6.0,
    "VSTESTCD": "DIABP",
    "VSTEST": "Diastolic Blood Pressure",
    "VSPOS": "STANDING",
    "VSORRES": "57",
    "VSORRESU": "mmHg",
    "VSSTRESC": "57",
    "VSSTRESN": 57.0,
    "VSSTRESU": "mmHg",
    "VSSTAT": "",
    "VSLOC": "",
    "VSLOBXFL": "",
    "VSREPNUM": 3.0,
    "VISITNUM": 2.0,
    "VISIT": "SCREENING 2",
    "EPOCH": "SCREENING",
    "VSDTC": "2013-10-06",
    "VSDY": -2.0
  },
  {
    "STUDYID": "CDISCPILOT01",
    "DOMAIN": "VS",
    "USUBJID": "CDISC004",
    "VSSEQ": 7.0,
    "VSTESTCD": "DIABP",
    "VSTEST": "Diastolic Blood Pressure",
    "VSPOS": "SUPINE",
    "VSORRES": "58",
    "VSORRESU": "mmHg",
    "VSSTRESC": "58",
    "VSSTRESN": 58.0,
    "VSSTRESU": "mmHg",
    "VSSTAT": "",
    "VSLOC": "",
    "VSLOBXFL": "",
    "VSREPNUM": 1.0,
    "VISITNUM": 3.0,
    "VISIT": "BASELINE",
    "EPOCH": "SCREENING",
    "VSDTC": "2013-10-08",
    "VSDY": 1.0
  },
  {
    "STUDYID": "CDISCPILOT01",
    "DOMAIN": "VS",
    "USUBJID": "CDISC004",
    "VSSEQ": 8.0,
    "VSTESTCD": "DIABP",
    "VSTEST": "Diastolic Blood Pressure",
    "VSPOS": "STANDING",
    "VSORRES": "52",
    "VSORRESU": "mmHg",
    "VSSTRESC": "52",
    "VSSTRESN": 52.0,
    "VSSTRESU": "mmHg",
    "VSSTAT": "",
    "VSLOC": "",
    "VSLOBXFL": "",
    "VSREPNUM": 2.0,
    "VISITNUM": 3.0,
    "VISIT": "BASELINE",
    "EPOCH": "SCREENING",
    "VSDTC": "2013-10-08",
    "VSDY": 1.0
  },
  {
    "STUDYID": "CDISCPILOT01",
    "DOMAIN": "VS",
    "USUBJID": "CDISC004",
    "VSSEQ": 9.0,
    "VSTESTCD": "DIABP",
    "VSTEST": "Diastolic Blood Pressure",
    "VSPOS": "STANDING",
    "VSORRES": "54",
    "VSORRESU": "mmHg",
    "VSSTRESC": "54",
    "VSSTRESN": 54.0,
    "VSSTRESU": "mmHg",
    "VSSTAT": "",
    "VSLOC": "",
    "VSLOBXFL": "Y",
    "VSREPNUM": 3.0,
    "VISITNUM": 3.0,
    "VISIT": "BASELINE",
    "EPOCH": "SCREENING",
    "VSDTC": "2013-10-08",
    "VSDY": 1.0
  },
  {
    "STUDYID": "CDISCPILOT01",
    "DOMAIN": "VS",
    "USUBJID": "CDISC004",
    "VSSEQ": 10.0,
    "VSTESTCD": "DIABP",
    "VSTEST": "Diastolic Blood Pressure",
    "VSPOS": "SUPINE",
    "VSORRES": "52",
    "VSORRESU": "mmHg",
    "VSSTRESC": "52",
    "VSSTRESN": 52.0,
    "VSSTRESU": "mmHg",
    "VSSTAT": "",
    "VSLOC": "",
    "VSLOBXFL": "",
    "VSREPNUM": 1.0,
    "VISITNUM": 4.0,
    "VISIT": "WEEK 2",
    "EPOCH": "TREATMENT",
    "VSDTC": "2013-10-24",
    "VSDY": 17.0
  },
  {
    "STUDYID": "CDISCPILOT01",
    "DOMAIN": "VS",
    "USUBJID": "CDISC004",
    "VSSEQ": 11.0,
    "VSTESTCD": "DIABP",
    "VSTEST": "Diastolic Blood Pressure",
    "VSPOS": "STANDING",
    "VSORRES": "56",
    "VSORRESU": "mmHg",
    "VSSTRESC": "56",
    "VSSTRESN": 56.0,
    "VSSTRESU": "mmHg",
    "VSSTAT": "",
    "VSLOC": "",
    "VSLOBXFL": "",
    "VSREPNUM": 2.0,
    "VISITNUM": 4.0,
    "VISIT": "WEEK 2",
    "EPOCH": "TREATMENT",
    "VSDTC": "2013-10-24",
    "VSDY": 17.0
  },
  {
    "STUDYID": "CDISCPILOT01",
    "DOMAIN": "VS",
    "USUBJID": "CDISC004",
    "VSSEQ": 12.0,
    "VSTESTCD": "DIABP",
    "VSTEST": "Diastolic Blood Pressure",
    "VSPOS": "STANDING",
    "VSORRES": "58",
    "VSORRESU": "mmHg",
    "VSSTRESC": "58",
    "VSSTRESN": 58.0,
    "VSSTRESU": "mmHg",
    "VSSTAT": "",
    "VSLOC": "",
    "VSLOBXFL": "",
    "VSREPNUM": 3.0,
    "VISITNUM": 4.0,
    "VISIT": "WEEK 2",
    "EPOCH": "TREATMENT",
    "VSDTC": "2013-10-24",
    "VSDY": 17.0
  },
  {
    "STUDYID": "CDISCPILOT01",
    "DOMAIN": "VS",
    "USUBJID": "CDISC004",
    "VSSEQ": 13.0,
    "VSTESTCD": "DIABP",
    "VSTEST": "Diastolic Blood Pressure",
    "VSPOS": "SUPINE",
    "VSORRES": "41",
    "VSORRESU": "mmHg",
    "VSSTRESC": "41",
    "VSSTRESN": 41.0,
    "VSSTRESU": "mmHg",
    "VSSTAT": "",
    "VSLOC": "",
    "VSLOBXFL": "",
    "VSREPNUM": 1.0,
    "VISITNUM": 5.0,
    "VISIT": "WEEK 4",
    "EPOCH": "TREATMENT",
    "VSDTC": "2013-11-08",
    "VSDY": 32.0
  },
  {
    "STUDYID": "CDISCPILOT01",
    "DOMAIN": "VS",
    "USUBJID": "CDISC004",
    "VSSEQ": 14.0,
    "VSTESTCD": "DIABP",
    "VSTEST": "Diastolic Blood Pressure",
    "VSPOS": "STANDING",
    "VSORRES": "39",
    "VSORRESU": "mmHg",
    "VSSTRESC": "39",
    "VSSTRESN": 39.0,
    "VSSTRESU": "mmHg",
    "VSSTAT": "",
    "VSLOC": "",
    "VSLOBXFL": "",
    "VSREPNUM": 2.0,
    "VISITNUM": 5.0,
    "VISIT": "WEEK 4",
    "EPOCH": "TREATMENT",
    "VSDTC": "2013-11-08",
    "VSDY": 32.0
  },
  {
    "STUDYID": "CDISCPILOT01",
    "DOMAIN": "VS",
    "USUBJID": "CDISC004",
    "VSSEQ": 15.0,
    "VSTESTCD": "DIABP",
    "VSTEST": "Diastolic Blood Pressure",
    "VSPOS": "STANDING",
    "VSORRES": "50",
    "VSORRESU": "mmHg",
    "VSSTRESC": "50",
    "VSSTRESN": 50.0,
    "VSSTRESU": "mmHg",
    "VSSTAT": "",
    "VSLOC": "",
    "VSLOBXFL": "",
    "VSREPNUM": 3.0,
    "VISITNUM": 5.0,
    "VISIT": "WEEK 4",
    "EPOCH": "TREATMENT",
    "VSDTC": "2013-11-08",
    "VSDY": 32.0
  },
  {
    "STUDYID": "CDISCPILOT01",
    "DOMAIN": "VS",
    "USUBJID": "CDISC004",
    "VSSEQ": 16.0,
    "VSTESTCD": "DIABP",
    "VSTEST": "Diastolic Blood Pressure",
    "VSPOS": "SUPINE",
    "VSORRES": "48",
    "VSORRESU": "mmHg",
    "VSSTRESC": "48",
    "VSSTRESN": 48.0,
    "VSSTRESU": "mmHg",
    "VSSTAT": "",
    "VSLOC": "",
    "VSLOBXFL": "",
    "VSREPNUM": 1.0,
    "VISITNUM": 7.0,
    "VISIT": "WEEK 6",
    "EPOCH": "TREATMENT",
    "VSDTC": "2013-11-19",
    "VSDY": 43.0
  },
  {
    "STUDYID": "CDISCPILOT01",
    "DOMAIN": "VS",
    "USUBJID": "CDISC004",
    "VSSEQ": 17.0,
    "VSTESTCD": "DIABP",
    "VSTEST": "Diastolic Blood Pressure",
    "VSPOS": "STANDING",
    "VSORRES": "52",
    "VSORRESU": "mmHg",
    "VSSTRESC": "52",
    "VSSTRESN": 52.0,
    "VSSTRESU": "mmHg",
    "VSSTAT": "",
    "VSLOC": "",
    "VSLOBXFL": "",
    "VSREPNUM": 2.0,
    "VISITNUM": 7.0,
    "VISIT": "WEEK 6",
    "EPOCH": "TREATMENT",
    "VSDTC": "2013-11-19",
    "VSDY": 43.0
  },
  {
    "STUDYID": "CDISCPILOT01",
    "DOMAIN": "VS",
    "USUBJID": "CDISC004",
    "VSSEQ": 18.0,
    "VSTESTCD": "DIABP",
    "VSTEST": "Diastolic Blood Pressure",
    "VSPOS": "STANDING",
    "VSORRES": "54",
    "VSORRESU": "mmHg",
    "VSSTRESC": "54",
    "VSSTRESN": 54.0,
    "VSSTRESU": "mmHg",
    "VSSTAT": "",
    "VSLOC": "",
    "VSLOBXFL": "",
    "VSREPNUM": 3.0,
    "VISITNUM": 7.0,
    "VISIT": "WEEK 6",
    "EPOCH": "TREATMENT",
    "VSDTC": "2013-11-19",
    "VSDY": 43.0
  },
  {
    "STUDYID": "CDISCPILOT01",
    "DOMAIN": "VS",
    "USUBJID": "CDISC004",
    "VSSEQ": 19.0,
    "VSTESTCD": "DIABP",
    "VSTEST": "Diastolic Blood Pressure",
    "VSPOS": "SUPINE",
    "VSORRES": "49",
    "VSORRESU": "mmHg",
    "VSSTRESC": "49",
    "VSSTRESN": 49.0,
    "VSSTRESU": "mmHg",
    "VSSTAT": "",
    "VSLOC": "",
    "VSLOBXFL": "",
    "VSREPNUM": 1.0,
    "VISITNUM": 8.0,
    "VISIT": "WEEK 8",
    "EPOCH": "TREATMENT",
    "VSDTC": "2013-12-03",
    "VSDY": 57.0
  },
  {
    "STUDYID": "CDISCPILOT01",
    "DOMAIN": "VS",
    "USUBJID": "CDISC004",
    "VSSEQ": 20.0,
    "VSTESTCD": "DIABP",
    "VSTEST": "Diastolic Blood Pressure",
    "VSPOS": "STANDING",
    "VSORRES": "52",
    "VSORRESU": "mmHg",
    "VSSTRESC": "52",
    "VSSTRESN": 52.0,
    "VSSTRESU": "mmHg",
    "VSSTAT": "",
    "VSLOC": "",
    "VSLOBXFL": "",
    "VSREPNUM": 2.0,
    "VISITNUM": 8.0,
    "VISIT": "WEEK 8",
    "EPOCH": "TREATMENT",
    "VSDTC": "2013-12-03",
    "VSDY": 57.0
  },
  {
    "STUDYID": "CDISCPILOT01",
    "DOMAIN": "VS",
    "USUBJID": "CDISC004",
    "VSSEQ": 21.0,
    "VSTESTCD": "DIABP",
    "VSTEST": "Diastolic Blood Pressure",
    "VSPOS": "STANDING",
    "VSORRES": "57",
    "VSORRESU": "mmHg",
    "VSSTRESC": "57",
    "VSSTRESN": 57.0,
    "VSSTRESU": "mmHg",
    "VSSTAT": "",
    "VSLOC": "",
    "VSLOBXFL": "",
    "VSREPNUM": 3.0,
    "VISITNUM": 8.0,
    "VISIT": "WEEK 8",
    "EPOCH": "TREATMENT",
    "VSDTC": "2013-12-03",
    "VSDY": 57.0
  },
  {
    "STUDYID": "CDISCPILOT01",
    "DOMAIN": "VS",
    "USUBJID": "CDISC004",
    "VSSEQ": 22.0,
    "VSTESTCD": "DIABP",
    "VSTEST": "Diastolic Blood Pressure",
    "VSPOS": "SUPINE",
    "VSORRES": "55",
    "VSORRESU": "mmHg",
    "VSSTRESC": "55",
    "VSSTRESN": 55.0,
    "VSSTRESU": "mmHg",
    "VSSTAT": "",
    "VSLOC": "",
    "VSLOBXFL": "",
    "VSREPNUM": 1.0,
    "VISITNUM": 9.0,
    "VISIT": "WEEK 12",
    "EPOCH": "TREATMENT",
    "VSDTC": "2013-12-31",
    "VSDY": 85.0
  },
  {
    "STUDYID": "CDISCPILOT01",
    "DOMAIN": "VS",
    "USUBJID": "CDISC004",
    "VSSEQ": 23.0,
    "VSTESTCD": "DIABP",
    "VSTEST": "Diastolic Blood Pressure",
    "VSPOS": "STANDING",
    "VSORRES": "49",
    "VSORRESU": "mmHg",
    "VSSTRESC": "49",
    "VSSTRESN": 49.0,
    "VSSTRESU": "mmHg",
    "VSSTAT": "",
    "VSLOC": "",
    "VSLOBXFL": "",
    "VSREPNUM": 2.0,
    "VISITNUM": 9.0,
    "VISIT": "WEEK 12",
    "EPOCH": "TREATMENT",
    "VSDTC": "2013-12-31",
    "VSDY": 85.0
  },
  {
    "STUDYID": "CDISCPILOT01",
    "DOMAIN": "VS",
    "USUBJID": "CDISC004",
    "VSSEQ": 24.0,
    "VSTESTCD": "DIABP",
    "VSTEST": "Diastolic Blood Pressure",
    "VSPOS": "STANDING",
    "VSORRES": "57",
    "VSORRESU": "mmHg",
    "VSSTRESC": "57",
    "VSSTRESN": 57.0,
    "VSSTRESU": "mmHg",
    "VSSTAT": "",
    "VSLOC": "",
    "VSLOBXFL": "",
    "VSREPNUM": 3.0,
    "VISITNUM": 9.0,
    "VISIT": "WEEK 12",
    "EPOCH": "TREATMENT",
    "VSDTC": "2013-12-31",
    "VSDY": 85.0
  },
  {
    "STUDYID": "CDISCPILOT01",
    "DOMAIN": "VS",
    "USUBJID": "CDISC004",
    "VSSEQ": 25.0,
    "VSTESTCD": "DIABP",
    "VSTEST": "Diastolic Blood Pressure",
    "VSPOS": "SUPINE",
    "VSORRES": "52",
    "VSORRESU": "mmHg",
    "VSSTRESC": "52",
    "VSSTRESN": 52.0,
    "VSSTRESU": "mmHg",
    "VSSTAT": "",
    "VSLOC": "",
    "VSLOBXFL": "",
    "VSREPNUM": 1.0,
    "VISITNUM": 10.0,
    "VISIT": "WEEK 16",
    "EPOCH": "TREATMENT",
    "VSDTC": "2014-01-27",
    "VSDY": 112.0
  },
  {
    "STUDYID": "CDISCPILOT01",
    "DOMAIN": "VS",
    "USUBJID": "CDISC004",
    "VSSEQ": 26.0,
    "VSTESTCD": "DIABP",
    "VSTEST": "Diastolic Blood Pressure",
    "VSPOS": "STANDING",
    "VSORRES": "49",
    "VSORRESU": "mmHg",
    "VSSTRESC": "49",
    "VSSTRESN": 49.0,
    "VSSTRESU": "mmHg",
    "VSSTAT": "",
    "VSLOC": "",
    "VSLOBXFL": "",
    "VSREPNUM": 2.0,
    "VISITNUM": 10.0,
    "VISIT": "WEEK 16",
    "EPOCH": "TREATMENT",
    "VSDTC": "2014-01-27",
    "VSDY": 112.0
  },
  {
    "STUDYID": "CDISCPILOT01",
    "DOMAIN": "VS",
    "USUBJID": "CDISC004",
    "VSSEQ": 27.0,
    "VSTESTCD": "DIABP",
    "VSTEST": "Diastolic Blood Pressure",
    "VSPOS": "STANDING",
    "VSORRES": "55",
    "VSORRESU": "mmHg",
    "VSSTRESC": "55",
    "VSSTRESN": 55.0,
    "VSSTRESU": "mmHg",
    "VSSTAT": "",
    "VSLOC": "",
    "VSLOBXFL": "",
    "VSREPNUM": 3.0,
    "VISITNUM": 10.0,
    "VISIT": "WEEK 16",
    "EPOCH": "TREATMENT",
    "VSDTC": "2014-01-27",
    "VSDY": 112.0
  },
  {
    "STUDYID": "CDISCPILOT01",
    "DOMAIN": "VS",
    "USUBJID": "CDISC004",
    "VSSEQ": 28.0,
    "VSTESTCD": "DIABP",
    "VSTEST": "Diastolic Blood Pressure",
    "VSPOS": "SUPINE",
    "VSORRES": "54",
    "VSORRESU": "mmHg",
    "VSSTRESC": "54",
    "VSSTRESN": 54.0,
    "VSSTRESU": "mmHg",
    "VSSTAT": "",
    "VSLOC": "",
    "VSLOBXFL": "",
    "VSREPNUM": 1.0,
    "VISITNUM": 11.0,
    "VISIT": "WEEK 20",
    "EPOCH": "TREATMENT",
    "VSDTC": "2014-02-25",
    "VSDY": 141.0
  },
  {
    "STUDYID": "CDISCPILOT01",
    "DOMAIN": "VS",
    "USUBJID": "CDISC004",
    "VSSEQ": 29.0,
    "VSTESTCD": "DIABP",
    "VSTEST": "Diastolic Blood Pressure",
    "VSPOS": "STANDING",
    "VSORRES": "48",
    "VSORRESU": "mmHg",
    "VSSTRESC": "48",
    "VSSTRESN": 48.0,
    "VSSTRESU": "mmHg",
    "VSSTAT": "",
    "VSLOC": "",
    "VSLOBXFL": "",
    "VSREPNUM": 2.0,
    "VISITNUM": 11.0,
    "VISIT": "WEEK 20",
    "EPOCH": "TREATMENT",
    "VSDTC": "2014-02-25",
    "VSDY": 141.0
  },
  {
    "STUDYID": "CDISCPILOT01",
    "DOMAIN": "VS",
    "USUBJID": "CDISC004",
    "VSSEQ": 30.0,
    "VSTESTCD": "DIABP",
    "VSTEST": "Diastolic Blood Pressure",
    "VSPOS": "STANDING",
    "VSORRES": "56",
    "VSORRESU": "mmHg",
    "VSSTRESC": "56",
    "VSSTRESN": 56.0,
    "VSSTRESU": "mmHg",
    "VSSTAT": "",
    "VSLOC": "",
    "VSLOBXFL": "",
    "VSREPNUM": 3.0,
    "VISITNUM": 11.0,
    "VISIT": "WEEK 20",
    "EPOCH": "TREATMENT",
    "VSDTC": "2014-02-25",
    "VSDY": 141.0
  },
  {
    "STUDYID": "CDISCPILOT01",
    "DOMAIN": "VS",
    "USUBJID": "CDISC004",
    "VSSEQ": 31.0,
    "VSTESTCD": "DIABP",
    "VSTEST": "Diastolic Blood Pressure",
    "VSPOS": "SUPINE",
    "VSORRES": "48",
    "VSORRESU": "mmHg",
    "VSSTRESC": "48",
    "VSSTRESN": 48.0,
    "VSSTRESU": "mmHg",
    "VSSTAT": "",
    "VSLOC": "",
    "VSLOBXFL": "",
    "VSREPNUM": 1.0,
    "VISITNUM": 12.0,
    "VISIT": "WEEK 24",
    "EPOCH": "TREATMENT",
    "VSDTC": "2014-03-18",
    "VSDY": 162.0
  },
  {
    "STUDYID": "CDISCPILOT01",
    "DOMAIN": "VS",
    "USUBJID": "CDISC004",
    "VSSEQ": 32.0,
    "VSTESTCD": "DIABP",
    "VSTEST": "Diastolic Blood Pressure",
    "VSPOS": "STANDING",
    "VSORRES": "56",
    "VSORRESU": "mmHg",
    "VSSTRESC": "56",
    "VSSTRESN": 56.0,
    "VSSTRESU": "mmHg",
    "VSSTAT": "",
    "VSLOC": "",
    "VSLOBXFL": "",
    "VSREPNUM": 2.0,
    "VISITNUM": 12.0,
    "VISIT": "WEEK 24",
    "EPOCH": "TREATMENT",
    "VSDTC": "2014-03-18",
    "VSDY": 162.0
  },
  {
    "STUDYID": "CDISCPILOT01",
    "DOMAIN": "VS",
    "USUBJID": "CDISC004",
    "VSSEQ": 33.0,
    "VSTESTCD": "DIABP",
    "VSTEST": "Diastolic Blood Pressure",
    "VSPOS": "STANDING",
    "VSORRES": "51",
    "VSORRESU": "mmHg",
    "VSSTRESC": "51",
    "VSSTRESN": 51.0,
    "VSSTRESU": "mmHg",
    "VSSTAT": "",
    "VSLOC": "",
    "VSLOBXFL": "",
    "VSREPNUM": 3.0,
    "VISITNUM": 12.0,
    "VISIT": "WEEK 24",
    "EPOCH": "TREATMENT",
    "VSDTC": "2014-03-18",
    "VSDY": 162.0
  },
  {
    "STUDYID": "CDISCPILOT01",
    "DOMAIN": "VS",
    "USUBJID": "CDISC004",
    "VSSEQ": 34.0,
    "VSTESTCD": "HEIGHT",
    "VSTEST": "Height",
    "VSPOS": "",
    "VSORRES": "68.5",
    "VSORRESU": "in",
    "VSSTRESC": "173.99",
    "VSSTRESN": 173.99,
    "VSSTRESU": "cm",
    "VSSTAT": "",
    "VSLOC": "",
    "VSLOBXFL": "",
    "VSREPNUM": "",
    "VISITNUM": 1.0,
    "VISIT": "SCREENING 1",
    "EPOCH": "SCREENING",
    "VSDTC": "2013-10-01",
    "VSDY": -7.0
  },
  {
    "STUDYID": "CDISCPILOT01",
    "DOMAIN": "VS",
    "USUBJID": "CDISC004",
    "VSSEQ": 35.0,
    "VSTESTCD": "PULSE",
    "VSTEST": "Pulse Rate",
    "VSPOS": "SUPINE",
    "VSORRES": "62",
    "VSORRESU": "beats/min",
    "VSSTRESC": "62",
    "VSSTRESN": 62.0,
    "VSSTRESU": "beats/min",
    "VSSTAT": "",
    "VSLOC": "",
    "VSLOBXFL": "",
    "VSREPNUM": 1.0,
    "VISITNUM": 1.0,
    "VISIT": "SCREENING 1",
    "EPOCH": "SCREENING",
    "VSDTC": "2013-10-01",
    "VSDY": -7.0
  },
  {
    "STUDYID": "CDISCPILOT01",
    "DOMAIN": "VS",
    "USUBJID": "CDISC004",
    "VSSEQ": 36.0,
    "VSTESTCD": "PULSE",
    "VSTEST": "Pulse Rate",
    "VSPOS": "STANDING",
    "VSORRES": "74",
    "VSORRESU": "beats/min",
    "VSSTRESC": "74",
    "VSSTRESN": 74.0,
    "VSSTRESU": "beats/min",
    "VSSTAT": "",
    "VSLOC": "",
    "VSLOBXFL": "",
    "VSREPNUM": 2.0,
    "VISITNUM": 1.0,
    "VISIT": "SCREENING 1",
    "EPOCH": "SCREENING",
    "VSDTC": "2013-10-01",
    "VSDY": -7.0
  },
  {
    "STUDYID": "CDISCPILOT01",
    "DOMAIN": "VS",
    "USUBJID": "CDISC004",
    "VSSEQ": 37.0,
    "VSTESTCD": "PULSE",
    "VSTEST": "Pulse Rate",
    "VSPOS": "STANDING",
    "VSORRES": "80",
    "VSORRESU": "beats/min",
    "VSSTRESC": "80",
    "VSSTRESN": 80.0,
    "VSSTRESU": "beats/min",
    "VSSTAT": "",
    "VSLOC": "",
    "VSLOBXFL": "",
    "VSREPNUM": 3.0,
    "VISITNUM": 1.0,
    "VISIT": "SCREENING 1",
    "EPOCH": "SCREENING",
    "VSDTC": "2013-10-01",
    "VSDY": -7.0
  },
  {
    "STUDYID": "CDISCPILOT01",
    "DOMAIN": "VS",
    "USUBJID": "CDISC004",
    "VSSEQ": 38.0,
    "VSTESTCD": "PULSE",
    "VSTEST": "Pulse Rate",
    "VSPOS": "SUPINE",
    "VSORRES": "61",
    "VSORRESU": "beats/min",
    "VSSTRESC": "61",
    "VSSTRESN": 61.0,
    "VSSTRESU": "beats/min",
    "VSSTAT": "",
    "VSLOC": "",
    "VSLOBXFL": "",
    "VSREPNUM": 1.0,
    "VISITNUM": 2.0,
    "VISIT": "SCREENING 2",
    "EPOCH": "SCREENING",
    "VSDTC": "2013-10-06",
    "VSDY": -2.0
  },
  {
    "STUDYID": "CDISCPILOT01",
    "DOMAIN": "VS",
    "USUBJID": "CDISC004",
    "VSSEQ": 39.0,
    "VSTESTCD": "PULSE",
    "VSTEST": "Pulse Rate",
    "VSPOS": "STANDING",
    "VSORRES": "71",
    "VSORRESU": "beats/min",
    "VSSTRESC": "71",
    "VSSTRESN": 71.0,
    "VSSTRESU": "beats/min",
    "VSSTAT": "",
    "VSLOC": "",
    "VSLOBXFL": "",
    "VSREPNUM": 2.0,
    "VISITNUM": 2.0,
    "VISIT": "SCREENING 2",
    "EPOCH": "SCREENING",
    "VSDTC": "2013-10-06",
    "VSDY": -2.0
  },
  {
    "STUDYID": "CDISCPILOT01",
    "DOMAIN": "VS",
    "USUBJID": "CDISC004",
    "VSSEQ": 40.0,
    "VSTESTCD": "PULSE",
    "VSTEST": "Pulse Rate",
    "VSPOS": "STANDING",
    "VSORRES": "65",
    "VSORRESU": "beats/min",
    "VSSTRESC": "65",
    "VSSTRESN": 65.0,
    "VSSTRESU": "beats/min",
    "VSSTAT": "",
    "VSLOC": "",
    "VSLOBXFL": "",
    "VSREPNUM": 3.0,
    "VISITNUM": 2.0,
    "VISIT": "SCREENING 2",
    "EPOCH": "SCREENING",
    "VSDTC": "2013-10-06",
    "VSDY": -2.0
  },
  {
    "STUDYID": "CDISCPILOT01",
    "DOMAIN": "VS",
    "USUBJID": "CDISC004",
    "VSSEQ": 41.0,
    "VSTESTCD": "PULSE",
    "VSTEST": "Pulse Rate",
    "VSPOS": "SUPINE",
    "VSORRES": "61",
    "VSORRESU": "beats/min",
    "VSSTRESC": "61",
    "VSSTRESN": 61.0,
    "VSSTRESU": "beats/min",
    "VSSTAT": "",
    "VSLOC": "",
    "VSLOBXFL": "",
    "VSREPNUM": 1.0,
    "VISITNUM": 3.0,
    "VISIT": "BASELINE",
    "EPOCH": "SCREENING",
    "VSDTC": "2013-10-08",
    "VSDY": 1.0
  },
  {
    "STUDYID": "CDISCPILOT01",
    "DOMAIN": "VS",
    "USUBJID": "CDISC004",
    "VSSEQ": 42.0,
    "VSTESTCD": "PULSE",
    "VSTEST": "Pulse Rate",
    "VSPOS": "STANDING",
    "VSORRES": "68",
    "VSORRESU": "beats/min",
    "VSSTRESC": "68",
    "VSSTRESN": 68.0,
    "VSSTRESU": "beats/min",
    "VSSTAT": "",
    "VSLOC": "",
    "VSLOBXFL": "",
    "VSREPNUM": 2.0,
    "VISITNUM": 3.0,
    "VISIT": "BASELINE",
    "EPOCH": "SCREENING",
    "VSDTC": "2013-10-08",
    "VSDY": 1.0
  },
  {
    "STUDYID": "CDISCPILOT01",
    "DOMAIN": "VS",
    "USUBJID": "CDISC004",
    "VSSEQ": 43.0,
    "VSTESTCD": "PULSE",
    "VSTEST": "Pulse Rate",
    "VSPOS": "STANDING",
    "VSORRES": "67",
    "VSORRESU": "beats/min",
    "VSSTRESC": "67",
    "VSSTRESN": 67.0,
    "VSSTRESU": "beats/min",
    "VSSTAT": "",
    "VSLOC": "",
    "VSLOBXFL": "Y",
    "VSREPNUM": 3.0,
    "VISITNUM": 3.0,
    "VISIT": "BASELINE",
    "EPOCH": "SCREENING",
    "VSDTC": "2013-10-08",
    "VSDY": 1.0
  },
  {
    "STUDYID": "CDISCPILOT01",
    "DOMAIN": "VS",
    "USUBJID": "CDISC004",
    "VSSEQ": 44.0,
    "VSTESTCD": "PULSE",
    "VSTEST": "Pulse Rate",
    "VSPOS": "SUPINE",
    "VSORRES": "62",
    "VSORRESU": "beats/min",
    "VSSTRESC": "62",
    "VSSTRESN": 62.0,
    "VSSTRESU": "beats/min",
    "VSSTAT": "",
    "VSLOC": "",
    "VSLOBXFL": "",
    "VSREPNUM": 1.0,
    "VISITNUM": 4.0,
    "VISIT": "WEEK 2",
    "EPOCH": "TREATMENT",
    "VSDTC": "2013-10-24",
    "VSDY": 17.0
  },
  {
    "STUDYID": "CDISCPILOT01",
    "DOMAIN": "VS",
    "USUBJID": "CDISC004",
    "VSSEQ": 45.0,
    "VSTESTCD": "PULSE",
    "VSTEST": "Pulse Rate",
    "VSPOS": "STANDING",
    "VSORRES": "73",
    "VSORRESU": "beats/min",
    "VSSTRESC": "73",
    "VSSTRESN": 73.0,
    "VSSTRESU": "beats/min",
    "VSSTAT": "",
    "VSLOC": "",
    "VSLOBXFL": "",
    "VSREPNUM": 2.0,
    "VISITNUM": 4.0,
    "VISIT": "WEEK 2",
    "EPOCH": "TREATMENT",
    "VSDTC": "2013-10-24",
    "VSDY": 17.0
  },
  {
    "STUDYID": "CDISCPILOT01",
    "DOMAIN": "VS",
    "USUBJID": "CDISC004",
    "VSSEQ": 46.0,
    "VSTESTCD": "PULSE",
    "VSTEST": "Pulse Rate",
    "VSPOS": "STANDING",
    "VSORRES": "74",
    "VSORRESU": "beats/min",
    "VSSTRESC": "74",
    "VSSTRESN": 74.0,
    "VSSTRESU": "beats/min",
    "VSSTAT": "",
    "VSLOC": "",
    "VSLOBXFL": "",
    "VSREPNUM": 3.0,
    "VISITNUM": 4.0,
    "VISIT": "WEEK 2",
    "EPOCH": "TREATMENT",
    "VSDTC": "2013-10-24",
    "VSDY": 17.0
  },
  {
    "STUDYID": "CDISCPILOT01",
    "DOMAIN": "VS",
    "USUBJID": "CDISC004",
    "VSSEQ": 47.0,
    "VSTESTCD": "PULSE",
    "VSTEST": "Pulse Rate",
    "VSPOS": "SUPINE",
    "VSORRES": "66",
    "VSORRESU": "beats/min",
    "VSSTRESC": "66",
    "VSSTRESN": 66.0,
    "VSSTRESU": "beats/min",
    "VSSTAT": "",
    "VSLOC": "",
    "VSLOBXFL": "",
    "VSREPNUM": 1.0,
    "VISITNUM": 5.0,
    "VISIT": "WEEK 4",
    "EPOCH": "TREATMENT",
    "VSDTC": "2013-11-08",
    "VSDY": 32.0
  },
  {
    "STUDYID": "CDISCPILOT01",
    "DOMAIN": "VS",
    "USUBJID": "CDISC004",
    "VSSEQ": 48.0,
    "VSTESTCD": "PULSE",
    "VSTEST": "Pulse Rate",
    "VSPOS": "STANDING",
    "VSORRES": "87",
    "VSORRESU": "beats/min",
    "VSSTRESC": "87",
    "VSSTRESN": 87.0,
    "VSSTRESU": "beats/min",
    "VSSTAT": "",
    "VSLOC": "",
    "VSLOBXFL": "",
    "VSREPNUM": 2.0,
    "VISITNUM": 5.0,
    "VISIT": "WEEK 4",
    "EPOCH": "TREATMENT",
    "VSDTC": "2013-11-08",
    "VSDY": 32.0
  },
  {
    "STUDYID": "CDISCPILOT01",
    "DOMAIN": "VS",
    "USUBJID": "CDISC004",
    "VSSEQ": 49.0,
    "VSTESTCD": "PULSE",
    "VSTEST": "Pulse Rate",
    "VSPOS": "STANDING",
    "VSORRES": "86",
    "VSORRESU": "beats/min",
    "VSSTRESC": "86",
    "VSSTRESN": 86.0,
    "VSSTRESU": "beats/min",
    "VSSTAT": "",
    "VSLOC": "",
    "VSLOBXFL": "",
    "VSREPNUM": 3.0,
    "VISITNUM": 5.0,
    "VISIT": "WEEK 4",
    "EPOCH": "TREATMENT",
    "VSDTC": "2013-11-08",
    "VSDY": 32.0
  },
  {
    "STUDYID": "CDISCPILOT01",
    "DOMAIN": "VS",
    "USUBJID": "CDISC004",
    "VSSEQ": 50.0,
    "VSTESTCD": "PULSE",
    "VSTEST": "Pulse Rate",
    "VSPOS": "SUPINE",
    "VSORRES": "62",
    "VSORRESU": "beats/min",
    "VSSTRESC": "62",
    "VSSTRESN": 62.0,
    "VSSTRESU": "beats/min",
    "VSSTAT": "",
    "VSLOC": "",
    "VSLOBXFL": "",
    "VSREPNUM": 1.0,
    "VISITNUM": 7.0,
    "VISIT": "WEEK 6",
    "EPOCH": "TREATMENT",
    "VSDTC": "2013-11-19",
    "VSDY": 43.0
  },
  {
    "STUDYID": "CDISCPILOT01",
    "DOMAIN": "VS",
    "USUBJID": "CDISC004",
    "VSSEQ": 51.0,
    "VSTESTCD": "PULSE",
    "VSTEST": "Pulse Rate",
    "VSPOS": "STANDING",
    "VSORRES": "66",
    "VSORRESU": "beats/min",
    "VSSTRESC": "66",
    "VSSTRESN": 66.0,
    "VSSTRESU": "beats/min",
    "VSSTAT": "",
    "VSLOC": "",
    "VSLOBXFL": "",
    "VSREPNUM": 2.0,
    "VISITNUM": 7.0,
    "VISIT": "WEEK 6",
    "EPOCH": "TREATMENT",
    "VSDTC": "2013-11-19",
    "VSDY": 43.0
  },
  {
    "STUDYID": "CDISCPILOT01",
    "DOMAIN": "VS",
    "USUBJID": "CDISC004",
    "VSSEQ": 52.0,
    "VSTESTCD": "PULSE",
    "VSTEST": "Pulse Rate",
    "VSPOS": "STANDING",
    "VSORRES": "68",
    "VSORRESU": "beats/min",
    "VSSTRESC": "68",
    "VSSTRESN": 68.0,
    "VSSTRESU": "beats/min",
    "VSSTAT": "",
    "VSLOC": "",
    "VSLOBXFL": "",
    "VSREPNUM": 3.0,
    "VISITNUM": 7.0,
    "VISIT": "WEEK 6",
    "EPOCH": "TREATMENT",
    "VSDTC": "2013-11-19",
    "VSDY": 43.0
  },
  {
    "STUDYID": "CDISCPILOT01",
    "DOMAIN": "VS",
    "USUBJID": "CDISC004",
    "VSSEQ": 53.0,
    "VSTESTCD": "PULSE",
    "VSTEST": "Pulse Rate",
    "VSPOS": "SUPINE",
    "VSORRES": "59",
    "VSORRESU": "beats/min",
    "VSSTRESC": "59",
    "VSSTRESN": 59.0,
    "VSSTRESU": "beats/min",
    "VSSTAT": "",
    "VSLOC": "",
    "VSLOBXFL": "",
    "VSREPNUM": 1.0,
    "VISITNUM": 8.0,
    "VISIT": "WEEK 8",
    "EPOCH": "TREATMENT",
    "VSDTC": "2013-12-03",
    "VSDY": 57.0
  },
  {
    "STUDYID": "CDISCPILOT01",
    "DOMAIN": "VS",
    "USUBJID": "CDISC004",
    "VSSEQ": 54.0,
    "VSTESTCD": "PULSE",
    "VSTEST": "Pulse Rate",
    "VSPOS": "STANDING",
    "VSORRES": "79",
    "VSORRESU": "beats/min",
    "VSSTRESC": "79",
    "VSSTRESN": 79.0,
    "VSSTRESU": "beats/min",
    "VSSTAT": "",
    "VSLOC": "",
    "VSLOBXFL": "",
    "VSREPNUM": 2.0,
    "VISITNUM": 8.0,
    "VISIT": "WEEK 8",
    "EPOCH": "TREATMENT",
    "VSDTC": "2013-12-03",
    "VSDY": 57.0
  },
  {
    "STUDYID": "CDISCPILOT01",
    "DOMAIN": "VS",
    "USUBJID": "CDISC004",
    "VSSEQ": 55.0,
    "VSTESTCD": "PULSE",
    "VSTEST": "Pulse Rate",
    "VSPOS": "STANDING",
    "VSORRES": "83",
    "VSORRESU": "beats/min",
    "VSSTRESC": "83",
    "VSSTRESN": 83.0,
    "VSSTRESU": "beats/min",
    "VSSTAT": "",
    "VSLOC": "",
    "VSLOBXFL": "",
    "VSREPNUM": 3.0,
    "VISITNUM": 8.0,
    "VISIT": "WEEK 8",
    "EPOCH": "TREATMENT",
    "VSDTC": "2013-12-03",
    "VSDY": 57.0
  },
  {
    "STUDYID": "CDISCPILOT01",
    "DOMAIN": "VS",
    "USUBJID": "CDISC004",
    "VSSEQ": 56.0,
    "VSTESTCD": "PULSE",
    "VSTEST": "Pulse Rate",
    "VSPOS": "SUPINE",
    "VSORRES": "62",
    "VSORRESU": "beats/min",
    "VSSTRESC": "62",
    "VSSTRESN": 62.0,
    "VSSTRESU": "beats/min",
    "VSSTAT": "",
    "VSLOC": "",
    "VSLOBXFL": "",
    "VSREPNUM": 1.0,
    "VISITNUM": 9.0,
    "VISIT": "WEEK 12",
    "EPOCH": "TREATMENT",
    "VSDTC": "2013-12-31",
    "VSDY": 85.0
  },
  {
    "STUDYID": "CDISCPILOT01",
    "DOMAIN": "VS",
    "USUBJID": "CDISC004",
    "VSSEQ": 57.0,
    "VSTESTCD": "PULSE",
    "VSTEST": "Pulse Rate",
    "VSPOS": "STANDING",
    "VSORRES": "67",
    "VSORRESU": "beats/min",
    "VSSTRESC": "67",
    "VSSTRESN": 67.0,
    "VSSTRESU": "beats/min",
    "VSSTAT": "",
    "VSLOC": "",
    "VSLOBXFL": "",
    "VSREPNUM": 2.0,
    "VISITNUM": 9.0,
    "VISIT": "WEEK 12",
    "EPOCH": "TREATMENT",
    "VSDTC": "2013-12-31",
    "VSDY": 85.0
  },
  {
    "STUDYID": "CDISCPILOT01",
    "DOMAIN": "VS",
    "USUBJID": "CDISC004",
    "VSSEQ": 58.0,
    "VSTESTCD": "PULSE",
    "VSTEST": "Pulse Rate",
    "VSPOS": "STANDING",
    "VSORRES": "65",
    "VSORRESU": "beats/min",
    "VSSTRESC": "65",
    "VSSTRESN": 65.0,
    "VSSTRESU": "beats/min",
    "VSSTAT": "",
    "VSLOC": "",
    "VSLOBXFL": "",
    "VSREPNUM": 3.0,
    "VISITNUM": 9.0,
    "VISIT": "WEEK 12",
    "EPOCH": "TREATMENT",
    "VSDTC": "2013-12-31",
    "VSDY": 85.0
  },
  {
    "STUDYID": "CDISCPILOT01",
    "DOMAIN": "VS",
    "USUBJID": "CDISC004",
    "VSSEQ": 59.0,
    "VSTESTCD": "PULSE",
    "VSTEST": "Pulse Rate",
    "VSPOS": "SUPINE",
    "VSORRES": "66",
    "VSORRESU": "beats/min",
    "VSSTRESC": "66",
    "VSSTRESN": 66.0,
    "VSSTRESU": "beats/min",
    "VSSTAT": "",
    "VSLOC": "",
    "VSLOBXFL": "",
    "VSREPNUM": 1.0,
    "VISITNUM": 10.0,
    "VISIT": "WEEK 16",
    "EPOCH": "TREATMENT",
    "VSDTC": "2014-01-27",
    "VSDY": 112.0
  },
  {
    "STUDYID": "CDISCPILOT01",
    "DOMAIN": "VS",
    "USUBJID": "CDISC004",
    "VSSEQ": 60.0,
    "VSTESTCD": "PULSE",
    "VSTEST": "Pulse Rate",
    "VSPOS": "STANDING",
    "VSORRES": "79",
    "VSORRESU": "beats/min",
    "VSSTRESC": "79",
    "VSSTRESN": 79.0,
    "VSSTRESU": "beats/min",
    "VSSTAT": "",
    "VSLOC": "",
    "VSLOBXFL": "",
    "VSREPNUM": 2.0,
    "VISITNUM": 10.0,
    "VISIT": "WEEK 16",
    "EPOCH": "TREATMENT",
    "VSDTC": "2014-01-27",
    "VSDY": 112.0
  },
  {
    "STUDYID": "CDISCPILOT01",
    "DOMAIN": "VS",
    "USUBJID": "CDISC004",
    "VSSEQ": 61.0,
    "VSTESTCD": "PULSE",
    "VSTEST": "Pulse Rate",
    "VSPOS": "STANDING",
    "VSORRES": "83",
    "VSORRESU": "beats/min",
    "VSSTRESC": "83",
    "VSSTRESN": 83.0,
    "VSSTRESU": "beats/min",
    "VSSTAT": "",
    "VSLOC": "",
    "VSLOBXFL": "",
    "VSREPNUM": 3.0,
    "VISITNUM": 10.0,
    "VISIT": "WEEK 16",
    "EPOCH": "TREATMENT",
    "VSDTC": "2014-01-27",
    "VSDY": 112.0
  },
  {
    "STUDYID": "CDISCPILOT01",
    "DOMAIN": "VS",
    "USUBJID": "CDISC004",
    "VSSEQ": 62.0,
    "VSTESTCD": "PULSE",
    "VSTEST": "Pulse Rate",
    "VSPOS": "SUPINE",
    "VSORRES": "61",
    "VSORRESU": "beats/min",
    "VSSTRESC": "61",
    "VSSTRESN": 61.0,
    "VSSTRESU": "beats/min",
    "VSSTAT": "",
    "VSLOC": "",
    "VSLOBXFL": "",
    "VSREPNUM": 1.0,
    "VISITNUM": 11.0,
    "VISIT": "WEEK 20",
    "EPOCH": "TREATMENT",
    "VSDTC": "2014-02-25",
    "VSDY": 141.0
  },
  {
    "STUDYID": "CDISCPILOT01",
    "DOMAIN": "VS",
    "USUBJID": "CDISC004",
    "VSSEQ": 63.0,
    "VSTESTCD": "PULSE",
    "VSTEST": "Pulse Rate",
    "VSPOS": "STANDING",
    "VSORRES": "74",
    "VSORRESU": "beats/min",
    "VSSTRESC": "74",
    "VSSTRESN": 74.0,
    "VSSTRESU": "beats/min",
    "VSSTAT": "",
    "VSLOC": "",
    "VSLOBXFL": "",
    "VSREPNUM": 2.0,
    "VISITNUM": 11.0,
    "VISIT": "WEEK 20",
    "EPOCH": "TREATMENT",
    "VSDTC": "2014-02-25",
    "VSDY": 141.0
  },
  {
    "STUDYID": "CDISCPILOT01",
    "DOMAIN": "VS",
    "USUBJID": "CDISC004",
    "VSSEQ": 64.0,
    "VSTESTCD": "PULSE",
    "VSTEST": "Pulse Rate",
    "VSPOS": "STANDING",
    "VSORRES": "75",
    "VSORRESU": "beats/min",
    "VSSTRESC": "75",
    "VSSTRESN": 75.0,
    "VSSTRESU": "beats/min",
    "VSSTAT": "",
    "VSLOC": "",
    "VSLOBXFL": "",
    "VSREPNUM": 3.0,
    "VISITNUM": 11.0,
    "VISIT": "WEEK 20",
    "EPOCH": "TREATMENT",
    "VSDTC": "2014-02-25",
    "VSDY": 141.0
  },
  {
    "STUDYID": "CDISCPILOT01",
    "DOMAIN": "VS",
    "USUBJID": "CDISC004",
    "VSSEQ": 65.0,
    "VSTESTCD": "PULSE",
    "VSTEST": "Pulse Rate",
    "VSPOS": "SUPINE",
    "VSORRES": "64",
    "VSORRESU": "beats/min",
    "VSSTRESC": "64",
    "VSSTRESN": 64.0,
    "VSSTRESU": "beats/min",
    "VSSTAT": "",
    "VSLOC": "",
    "VSLOBXFL": "",
    "VSREPNUM": 1.0,
    "VISITNUM": 12.0,
    "VISIT": "WEEK 24",
    "EPOCH": "TREATMENT",
    "VSDTC": "2014-03-18",
    "VSDY": 162.0
  },
  {
    "STUDYID": "CDISCPILOT01",
    "DOMAIN": "VS",
    "USUBJID": "CDISC004",
    "VSSEQ": 66.0,
    "VSTESTCD": "PULSE",
    "VSTEST": "Pulse Rate",
    "VSPOS": "STANDING",
    "VSORRES": "82",
    "VSORRESU": "beats/min",
    "VSSTRESC": "82",
    "VSSTRESN": 82.0,
    "VSSTRESU": "beats/min",
    "VSSTAT": "",
    "VSLOC": "",
    "VSLOBXFL": "",
    "VSREPNUM": 2.0,
    "VISITNUM": 12.0,
    "VISIT": "WEEK 24",
    "EPOCH": "TREATMENT",
    "VSDTC": "2014-03-18",
    "VSDY": 162.0
  },
  {
    "STUDYID": "CDISCPILOT01",
    "DOMAIN": "VS",
    "USUBJID": "CDISC004",
    "VSSEQ": 67.0,
    "VSTESTCD": "PULSE",
    "VSTEST": "Pulse Rate",
    "VSPOS": "STANDING",
    "VSORRES": "80",
    "VSORRESU": "beats/min",
    "VSSTRESC": "80",
    "VSSTRESN": 80.0,
    "VSSTRESU": "beats/min",
    "VSSTAT": "",
    "VSLOC": "",
    "VSLOBXFL": "",
    "VSREPNUM": 3.0,
    "VISITNUM": 12.0,
    "VISIT": "WEEK 24",
    "EPOCH": "TREATMENT",
    "VSDTC": "2014-03-18",
    "VSDY": 162.0
  },
  {
    "STUDYID": "CDISCPILOT01",
    "DOMAIN": "VS",
    "USUBJID": "CDISC004",
    "VSSEQ": 68.0,
    "VSTESTCD": "SYSBP",
    "VSTEST": "Systolic Blood Pressure",
    "VSPOS": "SUPINE",
    "VSORRES": "112",
    "VSORRESU": "mmHg",
    "VSSTRESC": "112",
    "VSSTRESN": 112.0,
    "VSSTRESU": "mmHg",
    "VSSTAT": "",
    "VSLOC": "",
    "VSLOBXFL": "",
    "VSREPNUM": 1.0,
    "VISITNUM": 1.0,
    "VISIT": "SCREENING 1",
    "EPOCH": "SCREENING",
    "VSDTC": "2013-10-01",
    "VSDY": -7.0
  },
  {
    "STUDYID": "CDISCPILOT01",
    "DOMAIN": "VS",
    "USUBJID": "CDISC004",
    "VSSEQ": 69.0,
    "VSTESTCD": "SYSBP",
    "VSTEST": "Systolic Blood Pressure",
    "VSPOS": "STANDING",
    "VSORRES": "110",
    "VSORRESU": "mmHg",
    "VSSTRESC": "110",
    "VSSTRESN": 110.0,
    "VSSTRESU": "mmHg",
    "VSSTAT": "",
    "VSLOC": "",
    "VSLOBXFL": "",
    "VSREPNUM": 2.0,
    "VISITNUM": 1.0,
    "VISIT": "SCREENING 1",
    "EPOCH": "SCREENING",
    "VSDTC": "2013-10-01",
    "VSDY": -7.0
  },
  {
    "STUDYID": "CDISCPILOT01",
    "DOMAIN": "VS",
    "USUBJID": "CDISC004",
    "VSSEQ": 70.0,
    "VSTESTCD": "SYSBP",
    "VSTEST": "Systolic Blood Pressure",
    "VSPOS": "STANDING",
    "VSORRES": "119",
    "VSORRESU": "mmHg",
    "VSSTRESC": "119",
    "VSSTRESN": 119.0,
    "VSSTRESU": "mmHg",
    "VSSTAT": "",
    "VSLOC": "",
    "VSLOBXFL": "",
    "VSREPNUM": 3.0,
    "VISITNUM": 1.0,
    "VISIT": "SCREENING 1",
    "EPOCH": "SCREENING",
    "VSDTC": "2013-10-01",
    "VSDY": -7.0
  },
  {
    "STUDYID": "CDISCPILOT01",
    "DOMAIN": "VS",
    "USUBJID": "CDISC004",
    "VSSEQ": 71.0,
    "VSTESTCD": "SYSBP",
    "VSTEST": "Systolic Blood Pressure",
    "VSPOS": "SUPINE",
    "VSORRES": "130",
    "VSORRESU": "mmHg",
    "VSSTRESC": "130",
    "VSSTRESN": 130.0,
    "VSSTRESU": "mmHg",
    "VSSTAT": "",
    "VSLOC": "",
    "VSLOBXFL": "",
    "VSREPNUM": 1.0,
    "VISITNUM": 2.0,
    "VISIT": "SCREENING 2",
    "EPOCH": "SCREENING",
    "VSDTC": "2013-10-06",
    "VSDY": -2.0
  },
  {
    "STUDYID": "CDISCPILOT01",
    "DOMAIN": "VS",
    "USUBJID": "CDISC004",
    "VSSEQ": 72.0,
    "VSTESTCD": "SYSBP",
    "VSTEST": "Systolic Blood Pressure",
    "VSPOS": "STANDING",
    "VSORRES": "121",
    "VSORRESU": "mmHg",
    "VSSTRESC": "121",
    "VSSTRESN": 121.0,
    "VSSTRESU": "mmHg",
    "VSSTAT": "",
    "VSLOC": "",
    "VSLOBXFL": "",
    "VSREPNUM": 2.0,
    "VISITNUM": 2.0,
    "VISIT": "SCREENING 2",
    "EPOCH": "SCREENING",
    "VSDTC": "2013-10-06",
    "VSDY": -2.0
  },
  {
    "STUDYID": "CDISCPILOT01",
    "DOMAIN": "VS",
    "USUBJID": "CDISC004",
    "VSSEQ": 73.0,
    "VSTESTCD": "SYSBP",
    "VSTEST": "Systolic Blood Pressure",
    "VSPOS": "STANDING",
    "VSORRES": "115",
    "VSORRESU": "mmHg",
    "VSSTRESC": "115",
    "VSSTRESN": 115.0,
    "VSSTRESU": "mmHg",
    "VSSTAT": "",
    "VSLOC": "",
    "VSLOBXFL": "",
    "VSREPNUM": 3.0,
    "VISITNUM": 2.0,
    "VISIT": "SCREENING 2",
    "EPOCH": "SCREENING",
    "VSDTC": "2013-10-06",
    "VSDY": -2.0
  },
  {
    "STUDYID": "CDISCPILOT01",
    "DOMAIN": "VS",
    "USUBJID": "CDISC004",
    "VSSEQ": 74.0,
    "VSTESTCD": "SYSBP",
    "VSTEST": "Systolic Blood Pressure",
    "VSPOS": "SUPINE",
    "VSORRES": "126",
    "VSORRESU": "mmHg",
    "VSSTRESC": "126",
    "VSSTRESN": 126.0,
    "VSSTRESU": "mmHg",
    "VSSTAT": "",
    "VSLOC": "",
    "VSLOBXFL": "",
    "VSREPNUM": 1.0,
    "VISITNUM": 3.0,
    "VISIT": "BASELINE",
    "EPOCH": "SCREENING",
    "VSDTC": "2013-10-08",
    "VSDY": 1.0
  },
  {
    "STUDYID": "CDISCPILOT01",
    "DOMAIN": "VS",
    "USUBJID": "CDISC004",
    "VSSEQ": 75.0,
    "VSTESTCD": "SYSBP",
    "VSTEST": "Systolic Blood Pressure",
    "VSPOS": "STANDING",
    "VSORRES": "108",
    "VSORRESU": "mmHg",
    "VSSTRESC": "108",
    "VSSTRESN": 108.0,
    "VSSTRESU": "mmHg",
    "VSSTAT": "",
    "VSLOC": "",
    "VSLOBXFL": "",
    "VSREPNUM": 2.0,
    "VISITNUM": 3.0,
    "VISIT": "BASELINE",
    "EPOCH": "SCREENING",
    "VSDTC": "2013-10-08",
    "VSDY": 1.0
  },
  {
    "STUDYID": "CDISCPILOT01",
    "DOMAIN": "VS",
    "USUBJID": "CDISC004",
    "VSSEQ": 76.0,
    "VSTESTCD": "SYSBP",
    "VSTEST": "Systolic Blood Pressure",
    "VSPOS": "STANDING",
    "VSORRES": "116",
    "VSORRESU": "mmHg",
    "VSSTRESC": "116",
    "VSSTRESN": 116.0,
    "VSSTRESU": "mmHg",
    "VSSTAT": "",
    "VSLOC": "",
    "VSLOBXFL": "Y",
    "VSREPNUM": 3.0,
    "VISITNUM": 3.0,
    "VISIT": "BASELINE",
    "EPOCH": "SCREENING",
    "VSDTC": "2013-10-08",
    "VSDY": 1.0
  },
  {
    "STUDYID": "CDISCPILOT01",
    "DOMAIN": "VS",
    "USUBJID": "CDISC004",
    "VSSEQ": 77.0,
    "VSTESTCD": "SYSBP",
    "VSTEST": "Systolic Blood Pressure",
    "VSPOS": "SUPINE",
    "VSORRES": "116",
    "VSORRESU": "mmHg",
    "VSSTRESC": "116",
    "VSSTRESN": 116.0,
    "VSSTRESU": "mmHg",
    "VSSTAT": "",
    "VSLOC": "",
    "VSLOBXFL": "",
    "VSREPNUM": 1.0,
    "VISITNUM": 4.0,
    "VISIT": "WEEK 2",
    "EPOCH": "TREATMENT",
    "VSDTC": "2013-10-24",
    "VSDY": 17.0
  },
  {
    "STUDYID": "CDISCPILOT01",
    "DOMAIN": "VS",
    "USUBJID": "CDISC004",
    "VSSEQ": 78.0,
    "VSTESTCD": "SYSBP",
    "VSTEST": "Systolic Blood Pressure",
    "VSPOS": "STANDING",
    "VSORRES": "110",
    "VSORRESU": "mmHg",
    "VSSTRESC": "110",
    "VSSTRESN": 110.0,
    "VSSTRESU": "mmHg",
    "VSSTAT": "",
    "VSLOC": "",
    "VSLOBXFL": "",
    "VSREPNUM": 2.0,
    "VISITNUM": 4.0,
    "VISIT": "WEEK 2",
    "EPOCH": "TREATMENT",
    "VSDTC": "2013-10-24",
    "VSDY": 17.0
  },
  {
    "STUDYID": "CDISCPILOT01",
    "DOMAIN": "VS",
    "USUBJID": "CDISC004",
    "VSSEQ": 79.0,
    "VSTESTCD": "SYSBP",
    "VSTEST": "Systolic Blood Pressure",
    "VSPOS": "STANDING",
    "VSORRES": "118",
    "VSORRESU": "mmHg",
    "VSSTRESC": "118",
    "VSSTRESN": 118.0,
    "VSSTRESU": "mmHg",
    "VSSTAT": "",
    "VSLOC": "",
    "VSLOBXFL": "",
    "VSREPNUM": 3.0,
    "VISITNUM": 4.0,
    "VISIT": "WEEK 2",
    "EPOCH": "TREATMENT",
    "VSDTC": "2013-10-24",
    "VSDY": 17.0
  },
  {
    "STUDYID": "CDISCPILOT01",
    "DOMAIN": "VS",
    "USUBJID": "CDISC004",
    "VSSEQ": 80.0,
    "VSTESTCD": "SYSBP",
    "VSTEST": "Systolic Blood Pressure",
    "VSPOS": "SUPINE",
    "VSORRES": "113",
    "VSORRESU": "mmHg",
    "VSSTRESC": "113",
    "VSSTRESN": 113.0,
    "VSSTRESU": "mmHg",
    "VSSTAT": "",
    "VSLOC": "",
    "VSLOBXFL": "",
    "VSREPNUM": 1.0,
    "VISITNUM": 5.0,
    "VISIT": "WEEK 4",
    "EPOCH": "TREATMENT",
    "VSDTC": "2013-11-08",
    "VSDY": 32.0
  },
  {
    "STUDYID": "CDISCPILOT01",
    "DOMAIN": "VS",
    "USUBJID": "CDISC004",
    "VSSEQ": 81.0,
    "VSTESTCD": "SYSBP",
    "VSTEST": "Systolic Blood Pressure",
    "VSPOS": "STANDING",
    "VSORRES": "106",
    "VSORRESU": "mmHg",
    "VSSTRESC": "106",
    "VSSTRESN": 106.0,
    "VSSTRESU": "mmHg",
    "VSSTAT": "",
    "VSLOC": "",
    "VSLOBXFL": "",
    "VSREPNUM": 2.0,
    "VISITNUM": 5.0,
    "VISIT": "WEEK 4",
    "EPOCH": "TREATMENT",
    "VSDTC": "2013-11-08",
    "VSDY": 32.0
  },
  {
    "STUDYID": "CDISCPILOT01",
    "DOMAIN": "VS",
    "USUBJID": "CDISC004",
    "VSSEQ": 82.0,
    "VSTESTCD": "SYSBP",
    "VSTEST": "Systolic Blood Pressure",
    "VSPOS": "STANDING",
    "VSORRES": "123",
    "VSORRESU": "mmHg",
    "VSSTRESC": "123",
    "VSSTRESN": 123.0,
    "VSSTRESU": "mmHg",
    "VSSTAT": "",
    "VSLOC": "",
    "VSLOBXFL": "",
    "VSREPNUM": 3.0,
    "VISITNUM": 5.0,
    "VISIT": "WEEK 4",
    "EPOCH": "TREATMENT",
    "VSDTC": "2013-11-08",
    "VSDY": 32.0
  },
  {
    "STUDYID": "CDISCPILOT01",
    "DOMAIN": "VS",
    "USUBJID": "CDISC004",
    "VSSEQ": 83.0,
    "VSTESTCD": "SYSBP",
    "VSTEST": "Systolic Blood Pressure",
    "VSPOS": "SUPINE",
    "VSORRES": "129",
    "VSORRESU": "mmHg",
    "VSSTRESC": "129",
    "VSSTRESN": 129.0,
    "VSSTRESU": "mmHg",
    "VSSTAT": "",
    "VSLOC": "",
    "VSLOBXFL": "",
    "VSREPNUM": 1.0,
    "VISITNUM": 7.0,
    "VISIT": "WEEK 6",
    "EPOCH": "TREATMENT",
    "VSDTC": "2013-11-19",
    "VSDY": 43.0
  },
  {
    "STUDYID": "CDISCPILOT01",
    "DOMAIN": "VS",
    "USUBJID": "CDISC004",
    "VSSEQ": 84.0,
    "VSTESTCD": "SYSBP",
    "VSTEST": "Systolic Blood Pressure",
    "VSPOS": "STANDING",
    "VSORRES": "122",
    "VSORRESU": "mmHg",
    "VSSTRESC": "122",
    "VSSTRESN": 122.0,
    "VSSTRESU": "mmHg",
    "VSSTAT": "",
    "VSLOC": "",
    "VSLOBXFL": "",
    "VSREPNUM": 2.0,
    "VISITNUM": 7.0,
    "VISIT": "WEEK 6",
    "EPOCH": "TREATMENT",
    "VSDTC": "2013-11-19",
    "VSDY": 43.0
  },
  {
    "STUDYID": "CDISCPILOT01",
    "DOMAIN": "VS",
    "USUBJID": "CDISC004",
    "VSSEQ": 85.0,
    "VSTESTCD": "SYSBP",
    "VSTEST": "Systolic Blood Pressure",
    "VSPOS": "STANDING",
    "VSORRES": "115",
    "VSORRESU": "mmHg",
    "VSSTRESC": "115",
    "VSSTRESN": 115.0,
    "VSSTRESU": "mmHg",
    "VSSTAT": "",
    "VSLOC": "",
    "VSLOBXFL": "",
    "VSREPNUM": 3.0,
    "VISITNUM": 7.0,
    "VISIT": "WEEK 6",
    "EPOCH": "TREATMENT",
    "VSDTC": "2013-11-19",
    "VSDY": 43.0
  },
  {
    "STUDYID": "CDISCPILOT01",
    "DOMAIN": "VS",
    "USUBJID": "CDISC004",
    "VSSEQ": 86.0,
    "VSTESTCD": "SYSBP",
    "VSTEST": "Systolic Blood Pressure",
    "VSPOS": "SUPINE",
    "VSORRES": "115",
    "VSORRESU": "mmHg",
    "VSSTRESC": "115",
    "VSSTRESN": 115.0,
    "VSSTRESU": "mmHg",
    "VSSTAT": "",
    "VSLOC": "",
    "VSLOBXFL": "",
    "VSREPNUM": 1.0,
    "VISITNUM": 8.0,
    "VISIT": "WEEK 8",
    "EPOCH": "TREATMENT",
    "VSDTC": "2013-12-03",
    "VSDY": 57.0
  },
  {
    "STUDYID": "CDISCPILOT01",
    "DOMAIN": "VS",
    "USUBJID": "CDISC004",
    "VSSEQ": 87.0,
    "VSTESTCD": "SYSBP",
    "VSTEST": "Systolic Blood Pressure",
    "VSPOS": "STANDING",
    "VSORRES": "105",
    "VSORRESU": "mmHg",
    "VSSTRESC": "105",
    "VSSTRESN": 105.0,
    "VSSTRESU": "mmHg",
    "VSSTAT": "",
    "VSLOC": "",
    "VSLOBXFL": "",
    "VSREPNUM": 2.0,
    "VISITNUM": 8.0,
    "VISIT": "WEEK 8",
    "EPOCH": "TREATMENT",
    "VSDTC": "2013-12-03",
    "VSDY": 57.0
  },
  {
    "STUDYID": "CDISCPILOT01",
    "DOMAIN": "VS",
    "USUBJID": "CDISC004",
    "VSSEQ": 88.0,
    "VSTESTCD": "SYSBP",
    "VSTEST": "Systolic Blood Pressure",
    "VSPOS": "STANDING",
    "VSORRES": "108",
    "VSORRESU": "mmHg",
    "VSSTRESC": "108",
    "VSSTRESN": 108.0,
    "VSSTRESU": "mmHg",
    "VSSTAT": "",
    "VSLOC": "",
    "VSLOBXFL": "",
    "VSREPNUM": 3.0,
    "VISITNUM": 8.0,
    "VISIT": "WEEK 8",
    "EPOCH": "TREATMENT",
    "VSDTC": "2013-12-03",
    "VSDY": 57.0
  },
  {
    "STUDYID": "CDISCPILOT01",
    "DOMAIN": "VS",
    "USUBJID": "CDISC004",
    "VSSEQ": 89.0,
    "VSTESTCD": "SYSBP",
    "VSTEST": "Systolic Blood Pressure",
    "VSPOS": "SUPINE",
    "VSORRES": "121",
    "VSORRESU": "mmHg",
    "VSSTRESC": "121",
    "VSSTRESN": 121.0,
    "VSSTRESU": "mmHg",
    "VSSTAT": "",
    "VSLOC": "",
    "VSLOBXFL": "",
    "VSREPNUM": 1.0,
    "VISITNUM": 9.0,
    "VISIT": "WEEK 12",
    "EPOCH": "TREATMENT",
    "VSDTC": "2013-12-31",
    "VSDY": 85.0
  },
  {
    "STUDYID": "CDISCPILOT01",
    "DOMAIN": "VS",
    "USUBJID": "CDISC004",
    "VSSEQ": 90.0,
    "VSTESTCD": "SYSBP",
    "VSTEST": "Systolic Blood Pressure",
    "VSPOS": "STANDING",
    "VSORRES": "113",
    "VSORRESU": "mmHg",
    "VSSTRESC": "113",
    "VSSTRESN": 113.0,
    "VSSTRESU": "mmHg",
    "VSSTAT": "",
    "VSLOC": "",
    "VSLOBXFL": "",
    "VSREPNUM": 2.0,
    "VISITNUM": 9.0,
    "VISIT": "WEEK 12",
    "EPOCH": "TREATMENT",
    "VSDTC": "2013-12-31",
    "VSDY": 85.0
  },
  {
    "STUDYID": "CDISCPILOT01",
    "DOMAIN": "VS",
    "USUBJID": "CDISC004",
    "VSSEQ": 91.0,
    "VSTESTCD": "SYSBP",
    "VSTEST": "Systolic Blood Pressure",
    "VSPOS": "STANDING",
    "VSORRES": "121",
    "VSORRESU": "mmHg",
    "VSSTRESC": "121",
    "VSSTRESN": 121.0,
    "VSSTRESU": "mmHg",
    "VSSTAT": "",
    "VSLOC": "",
    "VSLOBXFL": "",
    "VSREPNUM": 3.0,
    "VISITNUM": 9.0,
    "VISIT": "WEEK 12",
    "EPOCH": "TREATMENT",
    "VSDTC": "2013-12-31",
    "VSDY": 85.0
  },
  {
    "STUDYID": "CDISCPILOT01",
    "DOMAIN": "VS",
    "USUBJID": "CDISC004",
    "VSSEQ": 92.0,
    "VSTESTCD": "SYSBP",
    "VSTEST": "Systolic Blood Pressure",
    "VSPOS": "SUPINE",
    "VSORRES": "120",
    "VSORRESU": "mmHg",
    "VSSTRESC": "120",
    "VSSTRESN": 120.0,
    "VSSTRESU": "mmHg",
    "VSSTAT": "",
    "VSLOC": "",
    "VSLOBXFL": "",
    "VSREPNUM": 1.0,
    "VISITNUM": 10.0,
    "VISIT": "WEEK 16",
    "EPOCH": "TREATMENT",
    "VSDTC": "2014-01-27",
    "VSDY": 112.0
  },
  {
    "STUDYID": "CDISCPILOT01",
    "DOMAIN": "VS",
    "USUBJID": "CDISC004",
    "VSSEQ": 93.0,
    "VSTESTCD": "SYSBP",
    "VSTEST": "Systolic Blood Pressure",
    "VSPOS": "STANDING",
    "VSORRES": "114",
    "VSORRESU": "mmHg",
    "VSSTRESC": "114",
    "VSSTRESN": 114.0,
    "VSSTRESU": "mmHg",
    "VSSTAT": "",
    "VSLOC": "",
    "VSLOBXFL": "",
    "VSREPNUM": 2.0,
    "VISITNUM": 10.0,
    "VISIT": "WEEK 16",
    "EPOCH": "TREATMENT",
    "VSDTC": "2014-01-27",
    "VSDY": 112.0
  },
  {
    "STUDYID": "CDISCPILOT01",
    "DOMAIN": "VS",
    "USUBJID": "CDISC004",
    "VSSEQ": 94.0,
    "VSTESTCD": "SYSBP",
    "VSTEST": "Systolic Blood Pressure",
    "VSPOS": "STANDING",
    "VSORRES": "123",
    "VSORRESU": "mmHg",
    "VSSTRESC": "123",
    "VSSTRESN": 123.0,
    "VSSTRESU": "mmHg",
    "VSSTAT": "",
    "VSLOC": "",
    "VSLOBXFL": "",
    "VSREPNUM": 3.0,
    "VISITNUM": 10.0,
    "VISIT": "WEEK 16",
    "EPOCH": "TREATMENT",
    "VSDTC": "2014-01-27",
    "VSDY": 112.0
  },
  {
    "STUDYID": "CDISCPILOT01",
    "DOMAIN": "VS",
    "USUBJID": "CDISC004",
    "VSSEQ": 95.0,
    "VSTESTCD": "SYSBP",
    "VSTEST": "Systolic Blood Pressure",
    "VSPOS": "SUPINE",
    "VSORRES": "113",
    "VSORRESU": "mmHg",
    "VSSTRESC": "113",
    "VSSTRESN": 113.0,
    "VSSTRESU": "mmHg",
    "VSSTAT": "",
    "VSLOC": "",
    "VSLOBXFL": "",
    "VSREPNUM": 1.0,
    "VISITNUM": 11.0,
    "VISIT": "WEEK 20",
    "EPOCH": "TREATMENT",
    "VSDTC": "2014-02-25",
    "VSDY": 141.0
  },
  {
    "STUDYID": "CDISCPILOT01",
    "DOMAIN": "VS",
    "USUBJID": "CDISC004",
    "VSSEQ": 96.0,
    "VSTESTCD": "SYSBP",
    "VSTEST": "Systolic Blood Pressure",
    "VSPOS": "STANDING",
    "VSORRES": "104",
    "VSORRESU": "mmHg",
    "VSSTRESC": "104",
    "VSSTRESN": 104.0,
    "VSSTRESU": "mmHg",
    "VSSTAT": "",
    "VSLOC": "",
    "VSLOBXFL": "",
    "VSREPNUM": 2.0,
    "VISITNUM": 11.0,
    "VISIT": "WEEK 20",
    "EPOCH": "TREATMENT",
    "VSDTC": "2014-02-25",
    "VSDY": 141.0
  },
  {
    "STUDYID": "CDISCPILOT01",
    "DOMAIN": "VS",
    "USUBJID": "CDISC004",
    "VSSEQ": 97.0,
    "VSTESTCD": "SYSBP",
    "VSTEST": "Systolic Blood Pressure",
    "VSPOS": "STANDING",
    "VSORRES": "122",
    "VSORRESU": "mmHg",
    "VSSTRESC": "122",
    "VSSTRESN": 122.0,
    "VSSTRESU": "mmHg",
    "VSSTAT": "",
    "VSLOC": "",
    "VSLOBXFL": "",
    "VSREPNUM": 3.0,
    "VISITNUM": 11.0,
    "VISIT": "WEEK 20",
    "EPOCH": "TREATMENT",
    "VSDTC": "2014-02-25",
    "VSDY": 141.0
  },
  {
    "STUDYID": "CDISCPILOT01",
    "DOMAIN": "VS",
    "USUBJID": "CDISC004",
    "VSSEQ": 98.0,
    "VSTESTCD": "SYSBP",
    "VSTEST": "Systolic Blood Pressure",
    "VSPOS": "SUPINE",
    "VSORRES": "122",
    "VSORRESU": "mmHg",
    "VSSTRESC": "122",
    "VSSTRESN": 122.0,
    "VSSTRESU": "mmHg",
    "VSSTAT": "",
    "VSLOC": "",
    "VSLOBXFL": "",
    "VSREPNUM": 1.0,
    "VISITNUM": 12.0,
    "VISIT": "WEEK 24",
    "EPOCH": "TREATMENT",
    "VSDTC": "2014-03-18",
    "VSDY": 162.0
  },
  {
    "STUDYID": "CDISCPILOT01",
    "DOMAIN": "VS",
    "USUBJID": "CDISC004",
    "VSSEQ": 99.0,
    "VSTESTCD": "SYSBP",
    "VSTEST": "Systolic Blood Pressure",
    "VSPOS": "STANDING",
    "VSORRES": "120",
    "VSORRESU": "mmHg",
    "VSSTRESC": "120",
    "VSSTRESN": 120.0,
    "VSSTRESU": "mmHg",
    "VSSTAT": "",
    "VSLOC": "",
    "VSLOBXFL": "",
    "VSREPNUM": 2.0,
    "VISITNUM": 12.0,
    "VISIT": "WEEK 24",
    "EPOCH": "TREATMENT",
    "VSDTC": "2014-03-18",
    "VSDY": 162.0
  },
  {
    "STUDYID": "CDISCPILOT01",
    "DOMAIN": "VS",
    "USUBJID": "CDISC004",
    "VSSEQ": 100.0,
    "VSTESTCD": "SYSBP",
    "VSTEST": "Systolic Blood Pressure",
    "VSPOS": "STANDING",
    "VSORRES": "113",
    "VSORRESU": "mmHg",
    "VSSTRESC": "113",
    "VSSTRESN": 113.0,
    "VSSTRESU": "mmHg",
    "VSSTAT": "",
    "VSLOC": "",
    "VSLOBXFL": "",
    "VSREPNUM": 3.0,
    "VISITNUM": 12.0,
    "VISIT": "WEEK 24",
    "EPOCH": "TREATMENT",
    "VSDTC": "2014-03-18",
    "VSDY": 162.0
  },
  {
    "STUDYID": "CDISCPILOT01",
    "DOMAIN": "VS",
    "USUBJID": "CDISC004",
    "VSSEQ": 101.0,
    "VSTESTCD": "TEMP",
    "VSTEST": "Temperature",
    "VSPOS": "",
    "VSORRES": "98.5",
    "VSORRESU": "F",
    "VSSTRESC": "36.94",
    "VSSTRESN": 36.94,
    "VSSTRESU": "C",
    "VSSTAT": "",
    "VSLOC": "ORAL CAVITY",
    "VSLOBXFL": "",
    "VSREPNUM": "",
    "VISITNUM": 1.0,
    "VISIT": "SCREENING 1",
    "EPOCH": "SCREENING",
    "VSDTC": "2013-10-01",
    "VSDY": -7.0
  },
  {
    "STUDYID": "CDISCPILOT01",
    "DOMAIN": "VS",
    "USUBJID": "CDISC004",
    "VSSEQ": 102.0,
    "VSTESTCD": "TEMP",
    "VSTEST": "Temperature",
    "VSPOS": "",
    "VSORRES": "98.0",
    "VSORRESU": "F",
    "VSSTRESC": "36.67",
    "VSSTRESN": 36.67,
    "VSSTRESU": "C",
    "VSSTAT": "",
    "VSLOC": "ORAL CAVITY",
    "VSLOBXFL": "",
    "VSREPNUM": "",
    "VISITNUM": 2.0,
    "VISIT": "SCREENING 2",
    "EPOCH": "SCREENING",
    "VSDTC": "2013-10-06",
    "VSDY": -2.0
  },
  {
    "STUDYID": "CDISCPILOT01",
    "DOMAIN": "VS",
    "USUBJID": "CDISC004",
    "VSSEQ": 103.0,
    "VSTESTCD": "TEMP",
    "VSTEST": "Temperature",
    "VSPOS": "",
    "VSORRES": "97.6",
    "VSORRESU": "F",
    "VSSTRESC": "36.44",
    "VSSTRESN": 36.44,
    "VSSTRESU": "C",
    "VSSTAT": "",
    "VSLOC": "ORAL CAVITY",
    "VSLOBXFL": "Y",
    "VSREPNUM": "",
    "VISITNUM": 3.0,
    "VISIT": "BASELINE",
    "EPOCH": "SCREENING",
    "VSDTC": "2013-10-08",
    "VSDY": 1.0
  },
  {
    "STUDYID": "CDISCPILOT01",
    "DOMAIN": "VS",
    "USUBJID": "CDISC004",
    "VSSEQ": 104.0,
    "VSTESTCD": "TEMP",
    "VSTEST": "Temperature",
    "VSPOS": "",
    "VSORRES": "98.8",
    "VSORRESU": "F",
    "VSSTRESC": "37.11",
    "VSSTRESN": 37.11,
    "VSSTRESU": "C",
    "VSSTAT": "",
    "VSLOC": "ORAL CAVITY",
    "VSLOBXFL": "",
    "VSREPNUM": "",
    "VISITNUM": 4.0,
    "VISIT": "WEEK 2",
    "EPOCH": "TREATMENT",
    "VSDTC": "2013-10-24",
    "VSDY": 17.0
  },
  {
    "STUDYID": "CDISCPILOT01",
    "DOMAIN": "VS",
    "USUBJID": "CDISC004",
    "VSSEQ": 105.0,
    "VSTESTCD": "TEMP",
    "VSTEST": "Temperature",
    "VSPOS": "",
    "VSORRES": "98.9",
    "VSORRESU": "F",
    "VSSTRESC": "37.17",
    "VSSTRESN": 37.17,
    "VSSTRESU": "C",
    "VSSTAT": "",
    "VSLOC": "ORAL CAVITY",
    "VSLOBXFL": "",
    "VSREPNUM": "",
    "VISITNUM": 5.0,
    "VISIT": "WEEK 4",
    "EPOCH": "TREATMENT",
    "VSDTC": "2013-11-08",
    "VSDY": 32.0
  },
  {
    "STUDYID": "CDISCPILOT01",
    "DOMAIN": "VS",
    "USUBJID": "CDISC004",
    "VSSEQ": 106.0,
    "VSTESTCD": "TEMP",
    "VSTEST": "Temperature",
    "VSPOS": "",
    "VSORRES": "97.2",
    "VSORRESU": "F",
    "VSSTRESC": "36.22",
    "VSSTRESN": 36.22,
    "VSSTRESU": "C",
    "VSSTAT": "",
    "VSLOC": "ORAL CAVITY",
    "VSLOBXFL": "",
    "VSREPNUM": "",
    "VISITNUM": 7.0,
    "VISIT": "WEEK 6",
    "EPOCH": "TREATMENT",
    "VSDTC": "2013-11-19",
    "VSDY": 43.0
  },
  {
    "STUDYID": "CDISCPILOT01",
    "DOMAIN": "VS",
    "USUBJID": "CDISC004",
    "VSSEQ": 107.0,
    "VSTESTCD": "TEMP",
    "VSTEST": "Temperature",
    "VSPOS": "",
    "VSORRES": "98.9",
    "VSORRESU": "F",
    "VSSTRESC": "37.17",
    "VSSTRESN": 37.17,
    "VSSTRESU": "C",
    "VSSTAT": "",
    "VSLOC": "ORAL CAVITY",
    "VSLOBXFL": "",
    "VSREPNUM": "",
    "VISITNUM": 8.0,
    "VISIT": "WEEK 8",
    "EPOCH": "TREATMENT",
    "VSDTC": "2013-12-03",
    "VSDY": 57.0
  },
  {
    "STUDYID": "CDISCPILOT01",
    "DOMAIN": "VS",
    "USUBJID": "CDISC004",
    "VSSEQ": 108.0,
    "VSTESTCD": "TEMP",
    "VSTEST": "Temperature",
    "VSPOS": "",
    "VSORRES": "98.4",
    "VSORRESU": "F",
    "VSSTRESC": "36.89",
    "VSSTRESN": 36.89,
    "VSSTRESU": "C",
    "VSSTAT": "",
    "VSLOC": "ORAL CAVITY",
    "VSLOBXFL": "",
    "VSREPNUM": "",
    "VISITNUM": 9.0,
    "VISIT": "WEEK 12",
    "EPOCH": "TREATMENT",
    "VSDTC": "2013-12-31",
    "VSDY": 85.0
  },
  {
    "STUDYID": "CDISCPILOT01",
    "DOMAIN": "VS",
    "USUBJID": "CDISC004",
    "VSSEQ": 109.0,
    "VSTESTCD": "TEMP",
    "VSTEST": "Temperature",
    "VSPOS": "",
    "VSORRES": "97.7",
    "VSORRESU": "F",
    "VSSTRESC": "36.5",
    "VSSTRESN": 36.5,
    "VSSTRESU": "C",
    "VSSTAT": "",
    "VSLOC": "ORAL CAVITY",
    "VSLOBXFL": "",
    "VSREPNUM": "",
    "VISITNUM": 10.0,
    "VISIT": "WEEK 16",
    "EPOCH": "TREATMENT",
    "VSDTC": "2014-01-27",
    "VSDY": 112.0
  },
  {
    "STUDYID": "CDISCPILOT01",
    "DOMAIN": "VS",
    "USUBJID": "CDISC004",
    "VSSEQ": 110.0,
    "VSTESTCD": "TEMP",
    "VSTEST": "Temperature",
    "VSPOS": "",
    "VSORRES": "98.2",
    "VSORRESU": "F",
    "VSSTRESC": "36.78",
    "VSSTRESN": 36.78,
    "VSSTRESU": "C",
    "VSSTAT": "",
    "VSLOC": "ORAL CAVITY",
    "VSLOBXFL": "",
    "VSREPNUM": "",
    "VISITNUM": 11.0,
    "VISIT": "WEEK 20",
    "EPOCH": "TREATMENT",
    "VSDTC": "2014-02-25",
    "VSDY": 141.0
  },
  {
    "STUDYID": "CDISCPILOT01",
    "DOMAIN": "VS",
    "USUBJID": "CDISC004",
    "VSSEQ": 111.0,
    "VSTESTCD": "TEMP",
    "VSTEST": "Temperature",
    "VSPOS": "",
    "VSORRES": "97.8",
    "VSORRESU": "F",
    "VSSTRESC": "36.56",
    "VSSTRESN": 36.56,
    "VSSTRESU": "C",
    "VSSTAT": "",
    "VSLOC": "ORAL CAVITY",
    "VSLOBXFL": "",
    "VSREPNUM": "",
    "VISITNUM": 12.0,
    "VISIT": "WEEK 24",
    "EPOCH": "TREATMENT",
    "VSDTC": "2014-03-18",
    "VSDY": 162.0
  },
  {
    "STUDYID": "CDISCPILOT01",
    "DOMAIN": "VS",
    "USUBJID": "CDISC004",
    "VSSEQ": 112.0,
    "VSTESTCD": "WEIGHT",
    "VSTEST": "Weight",
    "VSPOS": "",
    "VSORRES": "123.0",
    "VSORRESU": "LB",
    "VSSTRESC": "55.79",
    "VSSTRESN": 55.79,
    "VSSTRESU": "kg",
    "VSSTAT": "",
    "VSLOC": "",
    "VSLOBXFL": "",
    "VSREPNUM": "",
    "VISITNUM": 1.0,
    "VISIT": "SCREENING 1",
    "EPOCH": "SCREENING",
    "VSDTC": "2013-10-01",
    "VSDY": -7.0
  },
  {
    "STUDYID": "CDISCPILOT01",
    "DOMAIN": "VS",
    "USUBJID": "CDISC004",
    "VSSEQ": 113.0,
    "VSTESTCD": "WEIGHT",
    "VSTEST": "Weight",
    "VSPOS": "",
    "VSORRES": "124.0",
    "VSORRESU": "LB",
    "VSSTRESC": "56.25",
    "VSSTRESN": 56.25,
    "VSSTRESU": "kg",
    "VSSTAT": "",
    "VSLOC": "",
    "VSLOBXFL": "Y",
    "VSREPNUM": "",
    "VISITNUM": 3.0,
    "VISIT": "BASELINE",
    "EPOCH": "SCREENING",
    "VSDTC": "2013-10-08",
    "VSDY": 1.0
  },
  {
    "STUDYID": "CDISCPILOT01",
    "DOMAIN": "VS",
    "USUBJID": "CDISC004",
    "VSSEQ": 114.0,
    "VSTESTCD": "WEIGHT",
    "VSTEST": "Weight",
    "VSPOS": "",
    "VSORRES": "124.0",
    "VSORRESU": "LB",
    "VSSTRESC": "56.25",
    "VSSTRESN": 56.25,
    "VSSTRESU": "kg",
    "VSSTAT": "",
    "VSLOC": "",
    "VSLOBXFL": "",
    "VSREPNUM": "",
    "VISITNUM": 4.0,
    "VISIT": "WEEK 2",
    "EPOCH": "TREATMENT",
    "VSDTC": "2013-10-24",
    "VSDY": 17.0
  },
  {
    "STUDYID": "CDISCPILOT01",
    "DOMAIN": "VS",
    "USUBJID": "CDISC004",
    "VSSEQ": 115.0,
    "VSTESTCD": "WEIGHT",
    "VSTEST": "Weight",
    "VSPOS": "",
    "VSORRES": "124.0",
    "VSORRESU": "LB",
    "VSSTRESC": "56.25",
    "VSSTRESN": 56.25,
    "VSSTRESU": "kg",
    "VSSTAT": "",
    "VSLOC": "",
    "VSLOBXFL": "",
    "VSREPNUM": "",
    "VISITNUM": 5.0,
    "VISIT": "WEEK 4",
    "EPOCH": "TREATMENT",
    "VSDTC": "2013-11-08",
    "VSDY": 32.0
  },
  {
    "STUDYID": "CDISCPILOT01",
    "DOMAIN": "VS",
    "USUBJID": "CDISC004",
    "VSSEQ": 116.0,
    "VSTESTCD": "WEIGHT",
    "VSTEST": "Weight",
    "VSPOS": "",
    "VSORRES": "125.0",
    "VSORRESU": "LB",
    "VSSTRESC": "56.7",
    "VSSTRESN": 56.7,
    "VSSTRESU": "kg",
    "VSSTAT": "",
    "VSLOC": "",
    "VSLOBXFL": "",
    "VSREPNUM": "",
    "VISITNUM": 7.0,
    "VISIT": "WEEK 6",
    "EPOCH": "TREATMENT",
    "VSDTC": "2013-11-19",
    "VSDY": 43.0
  },
  {
    "STUDYID": "CDISCPILOT01",
    "DOMAIN": "VS",
    "USUBJID": "CDISC004",
    "VSSEQ": 117.0,
    "VSTESTCD": "WEIGHT",
    "VSTEST": "Weight",
    "VSPOS": "",
    "VSORRES": "124.0",
    "VSORRESU": "LB",
    "VSSTRESC": "56.25",
    "VSSTRESN": 56.25,
    "VSSTRESU": "kg",
    "VSSTAT": "",
    "VSLOC": "",
    "VSLOBXFL": "",
    "VSREPNUM": "",
    "VISITNUM": 8.0,
    "VISIT": "WEEK 8",
    "EPOCH": "TREATMENT",
    "VSDTC": "2013-12-03",
    "VSDY": 57.0
  },
  {
    "STUDYID": "CDISCPILOT01",
    "DOMAIN": "VS",
    "USUBJID": "CDISC004",
    "VSSEQ": 118.0,
    "VSTESTCD": "WEIGHT",
    "VSTEST": "Weight",
    "VSPOS": "",
    "VSORRES": "124.0",
    "VSORRESU": "LB",
    "VSSTRESC": "56.25",
    "VSSTRESN": 56.25,
    "VSSTRESU": "kg",
    "VSSTAT": "",
    "VSLOC": "",
    "VSLOBXFL": "",
    "VSREPNUM": "",
    "VISITNUM": 9.0,
    "VISIT": "WEEK 12",
    "EPOCH": "TREATMENT",
    "VSDTC": "2013-12-31",
    "VSDY": 85.0
  },
  {
    "STUDYID": "CDISCPILOT01",
    "DOMAIN": "VS",
    "USUBJID": "CDISC004",
    "VSSEQ": 119.0,
    "VSTESTCD": "WEIGHT",
    "VSTEST": "Weight",
    "VSPOS": "",
    "VSORRES": "125.0",
    "VSORRESU": "LB",
    "VSSTRESC": "56.7",
    "VSSTRESN": 56.7,
    "VSSTRESU": "kg",
    "VSSTAT": "",
    "VSLOC": "",
    "VSLOBXFL": "",
    "VSREPNUM": "",
    "VISITNUM": 10.0,
    "VISIT": "WEEK 16",
    "EPOCH": "TREATMENT",
    "VSDTC": "2014-01-27",
    "VSDY": 112.0
  },
  {
    "STUDYID": "CDISCPILOT01",
    "DOMAIN": "VS",
    "USUBJID": "CDISC004",
    "VSSEQ": 120.0,
    "VSTESTCD": "WEIGHT",
    "VSTEST": "Weight",
    "VSPOS": "",
    "VSORRES": "126.0",
    "VSORRESU": "LB",
    "VSSTRESC": "57.15",
    "VSSTRESN": 57.15,
    "VSSTRESU": "kg",
    "VSSTAT": "",
    "VSLOC": "",
    "VSLOBXFL": "",
    "VSREPNUM": "",
    "VISITNUM": 11.0,
    "VISIT": "WEEK 20",
    "EPOCH": "TREATMENT",
    "VSDTC": "2014-02-25",
    "VSDY": 141.0
  },
  {
    "STUDYID": "CDISCPILOT01",
    "DOMAIN": "VS",
    "USUBJID": "CDISC004",
    "VSSEQ": 121.0,
    "VSTESTCD": "WEIGHT",
    "VSTEST": "Weight",
    "VSPOS": "",
    "VSORRES": "126.0",
    "VSORRESU": "LB",
    "VSSTRESC": "57.15",
    "VSSTRESN": 57.15,
    "VSSTRESU": "kg",
    "VSSTAT": "",
    "VSLOC": "",
    "VSLOBXFL": "",
    "VSREPNUM": "",
    "VISITNUM": 12.0,
    "VISIT": "WEEK 24",
    "EPOCH": "TREATMENT",
    "VSDTC": "2014-03-18",
    "VSDY": 162.0
  },
  {
    "STUDYID": "CDISCPILOT01",
    "DOMAIN": "VS",
    "USUBJID": "CDISC005",
    "VSSEQ": 1.0,
    "VSTESTCD": "DIABP",
    "VSTEST": "Diastolic Blood Pressure",
    "VSPOS": "SUPINE",
    "VSORRES": "72",
    "VSORRESU": "mmHg",
    "VSSTRESC": "72",
    "VSSTRESN": 72.0,
    "VSSTRESU": "mmHg",
    "VSSTAT": "",
    "VSLOC": "",
    "VSLOBXFL": "",
    "VSREPNUM": 1.0,
    "VISITNUM": 1.0,
    "VISIT": "SCREENING 1",
    "EPOCH": "SCREENING",
    "VSDTC": "2013-01-22",
    "VSDY": -13.0
  },
  {
    "STUDYID": "CDISCPILOT01",
    "DOMAIN": "VS",
    "USUBJID": "CDISC005",
    "VSSEQ": 2.0,
    "VSTESTCD": "DIABP",
    "VSTEST": "Diastolic Blood Pressure",
    "VSPOS": "STANDING",
    "VSORRES": "66",
    "VSORRESU": "mmHg",
    "VSSTRESC": "66",
    "VSSTRESN": 66.0,
    "VSSTRESU": "mmHg",
    "VSSTAT": "",
    "VSLOC": "",
    "VSLOBXFL": "",
    "VSREPNUM": 2.0,
    "VISITNUM": 1.0,
    "VISIT": "SCREENING 1",
    "EPOCH": "SCREENING",
    "VSDTC": "2013-01-22",
    "VSDY": -13.0
  },
  {
    "STUDYID": "CDISCPILOT01",
    "DOMAIN": "VS",
    "USUBJID": "CDISC005",
    "VSSEQ": 3.0,
    "VSTESTCD": "DIABP",
    "VSTEST": "Diastolic Blood Pressure",
    "VSPOS": "STANDING",
    "VSORRES": "66",
    "VSORRESU": "mmHg",
    "VSSTRESC": "66",
    "VSSTRESN": 66.0,
    "VSSTRESU": "mmHg",
    "VSSTAT": "",
    "VSLOC": "",
    "VSLOBXFL": "",
    "VSREPNUM": 3.0,
    "VISITNUM": 1.0,
    "VISIT": "SCREENING 1",
    "EPOCH": "SCREENING",
    "VSDTC": "2013-01-22",
    "VSDY": -13.0
  },
  {
    "STUDYID": "CDISCPILOT01",
    "DOMAIN": "VS",
    "USUBJID": "CDISC005",
    "VSSEQ": 4.0,
    "VSTESTCD": "DIABP",
    "VSTEST": "Diastolic Blood Pressure",
    "VSPOS": "SUPINE",
    "VSORRES": "56",
    "VSORRESU": "mmHg",
    "VSSTRESC": "56",
    "VSSTRESN": 56.0,
    "VSSTRESU": "mmHg",
    "VSSTAT": "",
    "VSLOC": "",
    "VSLOBXFL": "",
    "VSREPNUM": 1.0,
    "VISITNUM": 2.0,
    "VISIT": "SCREENING 2",
    "EPOCH": "SCREENING",
    "VSDTC": "2013-02-02",
    "VSDY": -2.0
  },
  {
    "STUDYID": "CDISCPILOT01",
    "DOMAIN": "VS",
    "USUBJID": "CDISC005",
    "VSSEQ": 5.0,
    "VSTESTCD": "DIABP",
    "VSTEST": "Diastolic Blood Pressure",
    "VSPOS": "STANDING",
    "VSORRES": "71",
    "VSORRESU": "mmHg",
    "VSSTRESC": "71",
    "VSSTRESN": 71.0,
    "VSSTRESU": "mmHg",
    "VSSTAT": "",
    "VSLOC": "",
    "VSLOBXFL": "",
    "VSREPNUM": 2.0,
    "VISITNUM": 2.0,
    "VISIT": "SCREENING 2",
    "EPOCH": "SCREENING",
    "VSDTC": "2013-02-02",
    "VSDY": -2.0
  },
  {
    "STUDYID": "CDISCPILOT01",
    "DOMAIN": "VS",
    "USUBJID": "CDISC005",
    "VSSEQ": 6.0,
    "VSTESTCD": "DIABP",
    "VSTEST": "Diastolic Blood Pressure",
    "VSPOS": "STANDING",
    "VSORRES": "74",
    "VSORRESU": "mmHg",
    "VSSTRESC": "74",
    "VSSTRESN": 74.0,
    "VSSTRESU": "mmHg",
    "VSSTAT": "",
    "VSLOC": "",
    "VSLOBXFL": "",
    "VSREPNUM": 3.0,
    "VISITNUM": 2.0,
    "VISIT": "SCREENING 2",
    "EPOCH": "SCREENING",
    "VSDTC": "2013-02-02",
    "VSDY": -2.0
  },
  {
    "STUDYID": "CDISCPILOT01",
    "DOMAIN": "VS",
    "USUBJID": "CDISC005",
    "VSSEQ": 7.0,
    "VSTESTCD": "DIABP",
    "VSTEST": "Diastolic Blood Pressure",
    "VSPOS": "SUPINE",
    "VSORRES": "63",
    "VSORRESU": "mmHg",
    "VSSTRESC": "63",
    "VSSTRESN": 63.0,
    "VSSTRESU": "mmHg",
    "VSSTAT": "",
    "VSLOC": "",
    "VSLOBXFL": "",
    "VSREPNUM": 1.0,
    "VISITNUM": 3.0,
    "VISIT": "BASELINE",
    "EPOCH": "SCREENING",
    "VSDTC": "2013-02-04",
    "VSDY": 1.0
  },
  {
    "STUDYID": "CDISCPILOT01",
    "DOMAIN": "VS",
    "USUBJID": "CDISC005",
    "VSSEQ": 8.0,
    "VSTESTCD": "DIABP",
    "VSTEST": "Diastolic Blood Pressure",
    "VSPOS": "STANDING",
    "VSORRES": "60",
    "VSORRESU": "mmHg",
    "VSSTRESC": "60",
    "VSSTRESN": 60.0,
    "VSSTRESU": "mmHg",
    "VSSTAT": "",
    "VSLOC": "",
    "VSLOBXFL": "",
    "VSREPNUM": 2.0,
    "VISITNUM": 3.0,
    "VISIT": "BASELINE",
    "EPOCH": "SCREENING",
    "VSDTC": "2013-02-04",
    "VSDY": 1.0
  },
  {
    "STUDYID": "CDISCPILOT01",
    "DOMAIN": "VS",
    "USUBJID": "CDISC005",
    "VSSEQ": 9.0,
    "VSTESTCD": "DIABP",
    "VSTEST": "Diastolic Blood Pressure",
    "VSPOS": "STANDING",
    "VSORRES": "65",
    "VSORRESU": "mmHg",
    "VSSTRESC": "65",
    "VSSTRESN": 65.0,
    "VSSTRESU": "mmHg",
    "VSSTAT": "",
    "VSLOC": "",
    "VSLOBXFL": "Y",
    "VSREPNUM": 3.0,
    "VISITNUM": 3.0,
    "VISIT": "BASELINE",
    "EPOCH": "SCREENING",
    "VSDTC": "2013-02-04",
    "VSDY": 1.0
  },
  {
    "STUDYID": "CDISCPILOT01",
    "DOMAIN": "VS",
    "USUBJID": "CDISC005",
    "VSSEQ": 10.0,
    "VSTESTCD": "DIABP",
    "VSTEST": "Diastolic Blood Pressure",
    "VSPOS": "SUPINE",
    "VSORRES": "66",
    "VSORRESU": "mmHg",
    "VSSTRESC": "66",
    "VSSTRESN": 66.0,
    "VSSTRESU": "mmHg",
    "VSSTAT": "",
    "VSLOC": "",
    "VSLOBXFL": "",
    "VSREPNUM": 1.0,
    "VISITNUM": 4.0,
    "VISIT": "WEEK 2",
    "EPOCH": "TREATMENT",
    "VSDTC": "2013-02-19",
    "VSDY": 16.0
  },
  {
    "STUDYID": "CDISCPILOT01",
    "DOMAIN": "VS",
    "USUBJID": "CDISC005",
    "VSSEQ": 11.0,
    "VSTESTCD": "DIABP",
    "VSTEST": "Diastolic Blood Pressure",
    "VSPOS": "STANDING",
    "VSORRES": "56",
    "VSORRESU": "mmHg",
    "VSSTRESC": "56",
    "VSSTRESN": 56.0,
    "VSSTRESU": "mmHg",
    "VSSTAT": "",
    "VSLOC": "",
    "VSLOBXFL": "",
    "VSREPNUM": 2.0,
    "VISITNUM": 4.0,
    "VISIT": "WEEK 2",
    "EPOCH": "TREATMENT",
    "VSDTC": "2013-02-19",
    "VSDY": 16.0
  },
  {
    "STUDYID": "CDISCPILOT01",
    "DOMAIN": "VS",
    "USUBJID": "CDISC005",
    "VSSEQ": 12.0,
    "VSTESTCD": "DIABP",
    "VSTEST": "Diastolic Blood Pressure",
    "VSPOS": "STANDING",
    "VSORRES": "66",
    "VSORRESU": "mmHg",
    "VSSTRESC": "66",
    "VSSTRESN": 66.0,
    "VSSTRESU": "mmHg",
    "VSSTAT": "",
    "VSLOC": "",
    "VSLOBXFL": "",
    "VSREPNUM": 3.0,
    "VISITNUM": 4.0,
    "VISIT": "WEEK 2",
    "EPOCH": "TREATMENT",
    "VSDTC": "2013-02-19",
    "VSDY": 16.0
  },
  {
    "STUDYID": "CDISCPILOT01",
    "DOMAIN": "VS",
    "USUBJID": "CDISC005",
    "VSSEQ": 13.0,
    "VSTESTCD": "DIABP",
    "VSTEST": "Diastolic Blood Pressure",
    "VSPOS": "SUPINE",
    "VSORRES": "54",
    "VSORRESU": "mmHg",
    "VSSTRESC": "54",
    "VSSTRESN": 54.0,
    "VSSTRESU": "mmHg",
    "VSSTAT": "",
    "VSLOC": "",
    "VSLOBXFL": "",
    "VSREPNUM": 1.0,
    "VISITNUM": 5.0,
    "VISIT": "WEEK 4",
    "EPOCH": "TREATMENT",
    "VSDTC": "2013-03-12",
    "VSDY": 37.0
  },
  {
    "STUDYID": "CDISCPILOT01",
    "DOMAIN": "VS",
    "USUBJID": "CDISC005",
    "VSSEQ": 14.0,
    "VSTESTCD": "DIABP",
    "VSTEST": "Diastolic Blood Pressure",
    "VSPOS": "STANDING",
    "VSORRES": "62",
    "VSORRESU": "mmHg",
    "VSSTRESC": "62",
    "VSSTRESN": 62.0,
    "VSSTRESU": "mmHg",
    "VSSTAT": "",
    "VSLOC": "",
    "VSLOBXFL": "",
    "VSREPNUM": 2.0,
    "VISITNUM": 5.0,
    "VISIT": "WEEK 4",
    "EPOCH": "TREATMENT",
    "VSDTC": "2013-03-12",
    "VSDY": 37.0
  },
  {
    "STUDYID": "CDISCPILOT01",
    "DOMAIN": "VS",
    "USUBJID": "CDISC005",
    "VSSEQ": 15.0,
    "VSTESTCD": "DIABP",
    "VSTEST": "Diastolic Blood Pressure",
    "VSPOS": "STANDING",
    "VSORRES": "64",
    "VSORRESU": "mmHg",
    "VSSTRESC": "64",
    "VSSTRESN": 64.0,
    "VSSTRESU": "mmHg",
    "VSSTAT": "",
    "VSLOC": "",
    "VSLOBXFL": "",
    "VSREPNUM": 3.0,
    "VISITNUM": 5.0,
    "VISIT": "WEEK 4",
    "EPOCH": "TREATMENT",
    "VSDTC": "2013-03-12",
    "VSDY": 37.0
  },
  {
    "STUDYID": "CDISCPILOT01",
    "DOMAIN": "VS",
    "USUBJID": "CDISC005",
    "VSSEQ": 16.0,
    "VSTESTCD": "DIABP",
    "VSTEST": "Diastolic Blood Pressure",
    "VSPOS": "SUPINE",
    "VSORRES": "64",
    "VSORRESU": "mmHg",
    "VSSTRESC": "64",
    "VSSTRESN": 64.0,
    "VSSTRESU": "mmHg",
    "VSSTAT": "",
    "VSLOC": "",
    "VSLOBXFL": "",
    "VSREPNUM": 1.0,
    "VISITNUM": 7.0,
    "VISIT": "WEEK 6",
    "EPOCH": "TREATMENT",
    "VSDTC": "2013-03-19",
    "VSDY": 44.0
  },
  {
    "STUDYID": "CDISCPILOT01",
    "DOMAIN": "VS",
    "USUBJID": "CDISC005",
    "VSSEQ": 17.0,
    "VSTESTCD": "DIABP",
    "VSTEST": "Diastolic Blood Pressure",
    "VSPOS": "STANDING",
    "VSORRES": "54",
    "VSORRESU": "mmHg",
    "VSSTRESC": "54",
    "VSSTRESN": 54.0,
    "VSSTRESU": "mmHg",
    "VSSTAT": "",
    "VSLOC": "",
    "VSLOBXFL": "",
    "VSREPNUM": 2.0,
    "VISITNUM": 7.0,
    "VISIT": "WEEK 6",
    "EPOCH": "TREATMENT",
    "VSDTC": "2013-03-19",
    "VSDY": 44.0
  },
  {
    "STUDYID": "CDISCPILOT01",
    "DOMAIN": "VS",
    "USUBJID": "CDISC005",
    "VSSEQ": 18.0,
    "VSTESTCD": "DIABP",
    "VSTEST": "Diastolic Blood Pressure",
    "VSPOS": "STANDING",
    "VSORRES": "60",
    "VSORRESU": "mmHg",
    "VSSTRESC": "60",
    "VSSTRESN": 60.0,
    "VSSTRESU": "mmHg",
    "VSSTAT": "",
    "VSLOC": "",
    "VSLOBXFL": "",
    "VSREPNUM": 3.0,
    "VISITNUM": 7.0,
    "VISIT": "WEEK 6",
    "EPOCH": "TREATMENT",
    "VSDTC": "2013-03-19",
    "VSDY": 44.0
  },
  {
    "STUDYID": "CDISCPILOT01",
    "DOMAIN": "VS",
    "USUBJID": "CDISC005",
    "VSSEQ": 19.0,
    "VSTESTCD": "DIABP",
    "VSTEST": "Diastolic Blood Pressure",
    "VSPOS": "SUPINE",
    "VSORRES": "63",
    "VSORRESU": "mmHg",
    "VSSTRESC": "63",
    "VSSTRESN": 63.0,
    "VSSTRESU": "mmHg",
    "VSSTAT": "",
    "VSLOC": "",
    "VSLOBXFL": "",
    "VSREPNUM": 1.0,
    "VISITNUM": 8.0,
    "VISIT": "WEEK 8",
    "EPOCH": "TREATMENT",
    "VSDTC": "2013-04-02",
    "VSDY": 58.0
  },
  {
    "STUDYID": "CDISCPILOT01",
    "DOMAIN": "VS",
    "USUBJID": "CDISC005",
    "VSSEQ": 20.0,
    "VSTESTCD": "DIABP",
    "VSTEST": "Diastolic Blood Pressure",
    "VSPOS": "STANDING",
    "VSORRES": "54",
    "VSORRESU": "mmHg",
    "VSSTRESC": "54",
    "VSSTRESN": 54.0,
    "VSSTRESU": "mmHg",
    "VSSTAT": "",
    "VSLOC": "",
    "VSLOBXFL": "",
    "VSREPNUM": 2.0,
    "VISITNUM": 8.0,
    "VISIT": "WEEK 8",
    "EPOCH": "TREATMENT",
    "VSDTC": "2013-04-02",
    "VSDY": 58.0
  },
  {
    "STUDYID": "CDISCPILOT01",
    "DOMAIN": "VS",
    "USUBJID": "CDISC005",
    "VSSEQ": 21.0,
    "VSTESTCD": "DIABP",
    "VSTEST": "Diastolic Blood Pressure",
    "VSPOS": "STANDING",
    "VSORRES": "61",
    "VSORRESU": "mmHg",
    "VSSTRESC": "61",
    "VSSTRESN": 61.0,
    "VSSTRESU": "mmHg",
    "VSSTAT": "",
    "VSLOC": "",
    "VSLOBXFL": "",
    "VSREPNUM": 3.0,
    "VISITNUM": 8.0,
    "VISIT": "WEEK 8",
    "EPOCH": "TREATMENT",
    "VSDTC": "2013-04-02",
    "VSDY": 58.0
  },
  {
    "STUDYID": "CDISCPILOT01",
    "DOMAIN": "VS",
    "USUBJID": "CDISC005",
    "VSSEQ": 22.0,
    "VSTESTCD": "DIABP",
    "VSTEST": "Diastolic Blood Pressure",
    "VSPOS": "SUPINE",
    "VSORRES": "56",
    "VSORRESU": "mmHg",
    "VSSTRESC": "56",
    "VSSTRESN": 56.0,
    "VSSTRESU": "mmHg",
    "VSSTAT": "",
    "VSLOC": "",
    "VSLOBXFL": "",
    "VSREPNUM": 1.0,
    "VISITNUM": 9.0,
    "VISIT": "WEEK 12",
    "EPOCH": "TREATMENT",
    "VSDTC": "2013-04-30",
    "VSDY": 86.0
  },
  {
    "STUDYID": "CDISCPILOT01",
    "DOMAIN": "VS",
    "USUBJID": "CDISC005",
    "VSSEQ": 23.0,
    "VSTESTCD": "DIABP",
    "VSTEST": "Diastolic Blood Pressure",
    "VSPOS": "STANDING",
    "VSORRES": "60",
    "VSORRESU": "mmHg",
    "VSSTRESC": "60",
    "VSSTRESN": 60.0,
    "VSSTRESU": "mmHg",
    "VSSTAT": "",
    "VSLOC": "",
    "VSLOBXFL": "",
    "VSREPNUM": 2.0,
    "VISITNUM": 9.0,
    "VISIT": "WEEK 12",
    "EPOCH": "TREATMENT",
    "VSDTC": "2013-04-30",
    "VSDY": 86.0
  },
  {
    "STUDYID": "CDISCPILOT01",
    "DOMAIN": "VS",
    "USUBJID": "CDISC005",
    "VSSEQ": 24.0,
    "VSTESTCD": "DIABP",
    "VSTEST": "Diastolic Blood Pressure",
    "VSPOS": "STANDING",
    "VSORRES": "60",
    "VSORRESU": "mmHg",
    "VSSTRESC": "60",
    "VSSTRESN": 60.0,
    "VSSTRESU": "mmHg",
    "VSSTAT": "",
    "VSLOC": "",
    "VSLOBXFL": "",
    "VSREPNUM": 3.0,
    "VISITNUM": 9.0,
    "VISIT": "WEEK 12",
    "EPOCH": "TREATMENT",
    "VSDTC": "2013-04-30",
    "VSDY": 86.0
  },
  {
    "STUDYID": "CDISCPILOT01",
    "DOMAIN": "VS",
    "USUBJID": "CDISC005",
    "VSSEQ": 25.0,
    "VSTESTCD": "DIABP",
    "VSTEST": "Diastolic Blood Pressure",
    "VSPOS": "SUPINE",
    "VSORRES": "62",
    "VSORRESU": "mmHg",
    "VSSTRESC": "62",
    "VSSTRESN": 62.0,
    "VSSTRESU": "mmHg",
    "VSSTAT": "",
    "VSLOC": "",
    "VSLOBXFL": "",
    "VSREPNUM": 1.0,
    "VISITNUM": 10.0,
    "VISIT": "WEEK 16",
    "EPOCH": "TREATMENT",
    "VSDTC": "2013-05-30",
    "VSDY": 116.0
  },
  {
    "STUDYID": "CDISCPILOT01",
    "DOMAIN": "VS",
    "USUBJID": "CDISC005",
    "VSSEQ": 26.0,
    "VSTESTCD": "DIABP",
    "VSTEST": "Diastolic Blood Pressure",
    "VSPOS": "STANDING",
    "VSORRES": "60",
    "VSORRESU": "mmHg",
    "VSSTRESC": "60",
    "VSSTRESN": 60.0,
    "VSSTRESU": "mmHg",
    "VSSTAT": "",
    "VSLOC": "",
    "VSLOBXFL": "",
    "VSREPNUM": 2.0,
    "VISITNUM": 10.0,
    "VISIT": "WEEK 16",
    "EPOCH": "TREATMENT",
    "VSDTC": "2013-05-30",
    "VSDY": 116.0
  },
  {
    "STUDYID": "CDISCPILOT01",
    "DOMAIN": "VS",
    "USUBJID": "CDISC005",
    "VSSEQ": 27.0,
    "VSTESTCD": "DIABP",
    "VSTEST": "Diastolic Blood Pressure",
    "VSPOS": "STANDING",
    "VSORRES": "64",
    "VSORRESU": "mmHg",
    "VSSTRESC": "64",
    "VSSTRESN": 64.0,
    "VSSTRESU": "mmHg",
    "VSSTAT": "",
    "VSLOC": "",
    "VSLOBXFL": "",
    "VSREPNUM": 3.0,
    "VISITNUM": 10.0,
    "VISIT": "WEEK 16",
    "EPOCH": "TREATMENT",
    "VSDTC": "2013-05-30",
    "VSDY": 116.0
  },
  {
    "STUDYID": "CDISCPILOT01",
    "DOMAIN": "VS",
    "USUBJID": "CDISC005",
    "VSSEQ": 28.0,
    "VSTESTCD": "DIABP",
    "VSTEST": "Diastolic Blood Pressure",
    "VSPOS": "SUPINE",
    "VSORRES": "58",
    "VSORRESU": "mmHg",
    "VSSTRESC": "58",
    "VSSTRESN": 58.0,
    "VSSTRESU": "mmHg",
    "VSSTAT": "",
    "VSLOC": "",
    "VSLOBXFL": "",
    "VSREPNUM": 1.0,
    "VISITNUM": 11.0,
    "VISIT": "WEEK 20",
    "EPOCH": "TREATMENT",
    "VSDTC": "2013-06-25",
    "VSDY": 142.0
  },
  {
    "STUDYID": "CDISCPILOT01",
    "DOMAIN": "VS",
    "USUBJID": "CDISC005",
    "VSSEQ": 29.0,
    "VSTESTCD": "DIABP",
    "VSTEST": "Diastolic Blood Pressure",
    "VSPOS": "STANDING",
    "VSORRES": "54",
    "VSORRESU": "mmHg",
    "VSSTRESC": "54",
    "VSSTRESN": 54.0,
    "VSSTRESU": "mmHg",
    "VSSTAT": "",
    "VSLOC": "",
    "VSLOBXFL": "",
    "VSREPNUM": 2.0,
    "VISITNUM": 11.0,
    "VISIT": "WEEK 20",
    "EPOCH": "TREATMENT",
    "VSDTC": "2013-06-25",
    "VSDY": 142.0
  },
  {
    "STUDYID": "CDISCPILOT01",
    "DOMAIN": "VS",
    "USUBJID": "CDISC005",
    "VSSEQ": 30.0,
    "VSTESTCD": "DIABP",
    "VSTEST": "Diastolic Blood Pressure",
    "VSPOS": "STANDING",
    "VSORRES": "66",
    "VSORRESU": "mmHg",
    "VSSTRESC": "66",
    "VSSTRESN": 66.0,
    "VSSTRESU": "mmHg",
    "VSSTAT": "",
    "VSLOC": "",
    "VSLOBXFL": "",
    "VSREPNUM": 3.0,
    "VISITNUM": 11.0,
    "VISIT": "WEEK 20",
    "EPOCH": "TREATMENT",
    "VSDTC": "2013-06-25",
    "VSDY": 142.0
  },
  {
    "STUDYID": "CDISCPILOT01",
    "DOMAIN": "VS",
    "USUBJID": "CDISC005",
    "VSSEQ": 31.0,
    "VSTESTCD": "DIABP",
    "VSTEST": "Diastolic Blood Pressure",
    "VSPOS": "SUPINE",
    "VSORRES": "68",
    "VSORRESU": "mmHg",
    "VSSTRESC": "68",
    "VSSTRESN": 68.0,
    "VSSTRESU": "mmHg",
    "VSSTAT": "",
    "VSLOC": "",
    "VSLOBXFL": "",
    "VSREPNUM": 1.0,
    "VISITNUM": 12.0,
    "VISIT": "WEEK 24",
    "EPOCH": "TREATMENT",
    "VSDTC": "2013-07-30",
    "VSDY": 177.0
  },
  {
    "STUDYID": "CDISCPILOT01",
    "DOMAIN": "VS",
    "USUBJID": "CDISC005",
    "VSSEQ": 32.0,
    "VSTESTCD": "DIABP",
    "VSTEST": "Diastolic Blood Pressure",
    "VSPOS": "STANDING",
    "VSORRES": "60",
    "VSORRESU": "mmHg",
    "VSSTRESC": "60",
    "VSSTRESN": 60.0,
    "VSSTRESU": "mmHg",
    "VSSTAT": "",
    "VSLOC": "",
    "VSLOBXFL": "",
    "VSREPNUM": 2.0,
    "VISITNUM": 12.0,
    "VISIT": "WEEK 24",
    "EPOCH": "TREATMENT",
    "VSDTC": "2013-07-30",
    "VSDY": 177.0
  },
  {
    "STUDYID": "CDISCPILOT01",
    "DOMAIN": "VS",
    "USUBJID": "CDISC005",
    "VSSEQ": 33.0,
    "VSTESTCD": "DIABP",
    "VSTEST": "Diastolic Blood Pressure",
    "VSPOS": "STANDING",
    "VSORRES": "62",
    "VSORRESU": "mmHg",
    "VSSTRESC": "62",
    "VSSTRESN": 62.0,
    "VSSTRESU": "mmHg",
    "VSSTAT": "",
    "VSLOC": "",
    "VSLOBXFL": "",
    "VSREPNUM": 3.0,
    "VISITNUM": 12.0,
    "VISIT": "WEEK 24",
    "EPOCH": "TREATMENT",
    "VSDTC": "2013-07-30",
    "VSDY": 177.0
  },
  {
    "STUDYID": "CDISCPILOT01",
    "DOMAIN": "VS",
    "USUBJID": "CDISC005",
    "VSSEQ": 34.0,
    "VSTESTCD": "DIABP",
    "VSTEST": "Diastolic Blood Pressure",
    "VSPOS": "SUPINE",
    "VSORRES": "62",
    "VSORRESU": "mmHg",
    "VSSTRESC": "62",
    "VSSTRESN": 62.0,
    "VSSTRESU": "mmHg",
    "VSSTAT": "",
    "VSLOC": "",
    "VSLOBXFL": "",
    "VSREPNUM": 1.0,
    "VISITNUM": 13.0,
    "VISIT": "WEEK 26",
    "EPOCH": "TREATMENT",
    "VSDTC": "2013-08-06",
    "VSDY": 184.0
  },
  {
    "STUDYID": "CDISCPILOT01",
    "DOMAIN": "VS",
    "USUBJID": "CDISC005",
    "VSSEQ": 35.0,
    "VSTESTCD": "DIABP",
    "VSTEST": "Diastolic Blood Pressure",
    "VSPOS": "STANDING",
    "VSORRES": "56",
    "VSORRESU": "mmHg",
    "VSSTRESC": "56",
    "VSSTRESN": 56.0,
    "VSSTRESU": "mmHg",
    "VSSTAT": "",
    "VSLOC": "",
    "VSLOBXFL": "",
    "VSREPNUM": 2.0,
    "VISITNUM": 13.0,
    "VISIT": "WEEK 26",
    "EPOCH": "TREATMENT",
    "VSDTC": "2013-08-06",
    "VSDY": 184.0
  },
  {
    "STUDYID": "CDISCPILOT01",
    "DOMAIN": "VS",
    "USUBJID": "CDISC005",
    "VSSEQ": 36.0,
    "VSTESTCD": "DIABP",
    "VSTEST": "Diastolic Blood Pressure",
    "VSPOS": "STANDING",
    "VSORRES": "59",
    "VSORRESU": "mmHg",
    "VSSTRESC": "59",
    "VSSTRESN": 59.0,
    "VSSTRESU": "mmHg",
    "VSSTAT": "",
    "VSLOC": "",
    "VSLOBXFL": "",
    "VSREPNUM": 3.0,
    "VISITNUM": 13.0,
    "VISIT": "WEEK 26",
    "EPOCH": "TREATMENT",
    "VSDTC": "2013-08-06",
    "VSDY": 184.0
  },
  {
    "STUDYID": "CDISCPILOT01",
    "DOMAIN": "VS",
    "USUBJID": "CDISC005",
    "VSSEQ": 37.0,
    "VSTESTCD": "HEIGHT",
    "VSTEST": "Height",
    "VSPOS": "",
    "VSORRES": "64.5",
    "VSORRESU": "in",
    "VSSTRESC": "163.83",
    "VSSTRESN": 163.83,
    "VSSTRESU": "cm",
    "VSSTAT": "",
    "VSLOC": "",
    "VSLOBXFL": "",
    "VSREPNUM": "",
    "VISITNUM": 1.0,
    "VISIT": "SCREENING 1",
    "EPOCH": "SCREENING",
    "VSDTC": "2013-01-22",
    "VSDY": -13.0
  },
  {
    "STUDYID": "CDISCPILOT01",
    "DOMAIN": "VS",
    "USUBJID": "CDISC005",
    "VSSEQ": 38.0,
    "VSTESTCD": "PULSE",
    "VSTEST": "Pulse Rate",
    "VSPOS": "SUPINE",
    "VSORRES": "70",
    "VSORRESU": "beats/min",
    "VSSTRESC": "70",
    "VSSTRESN": 70.0,
    "VSSTRESU": "beats/min",
    "VSSTAT": "",
    "VSLOC": "",
    "VSLOBXFL": "",
    "VSREPNUM": 1.0,
    "VISITNUM": 1.0,
    "VISIT": "SCREENING 1",
    "EPOCH": "SCREENING",
    "VSDTC": "2013-01-22",
    "VSDY": -13.0
  },
  {
    "STUDYID": "CDISCPILOT01",
    "DOMAIN": "VS",
    "USUBJID": "CDISC005",
    "VSSEQ": 39.0,
    "VSTESTCD": "PULSE",
    "VSTEST": "Pulse Rate",
    "VSPOS": "STANDING",
    "VSORRES": "77",
    "VSORRESU": "beats/min",
    "VSSTRESC": "77",
    "VSSTRESN": 77.0,
    "VSSTRESU": "beats/min",
    "VSSTAT": "",
    "VSLOC": "",
    "VSLOBXFL": "",
    "VSREPNUM": 2.0,
    "VISITNUM": 1.0,
    "VISIT": "SCREENING 1",
    "EPOCH": "SCREENING",
    "VSDTC": "2013-01-22",
    "VSDY": -13.0
  },
  {
    "STUDYID": "CDISCPILOT01",
    "DOMAIN": "VS",
    "USUBJID": "CDISC005",
    "VSSEQ": 40.0,
    "VSTESTCD": "PULSE",
    "VSTEST": "Pulse Rate",
    "VSPOS": "STANDING",
    "VSORRES": "80",
    "VSORRESU": "beats/min",
    "VSSTRESC": "80",
    "VSSTRESN": 80.0,
    "VSSTRESU": "beats/min",
    "VSSTAT": "",
    "VSLOC": "",
    "VSLOBXFL": "",
    "VSREPNUM": 3.0,
    "VISITNUM": 1.0,
    "VISIT": "SCREENING 1",
    "EPOCH": "SCREENING",
    "VSDTC": "2013-01-22",
    "VSDY": -13.0
  },
  {
    "STUDYID": "CDISCPILOT01",
    "DOMAIN": "VS",
    "USUBJID": "CDISC005",
    "VSSEQ": 41.0,
    "VSTESTCD": "PULSE",
    "VSTEST": "Pulse Rate",
    "VSPOS": "SUPINE",
    "VSORRES": "80",
    "VSORRESU": "beats/min",
    "VSSTRESC": "80",
    "VSSTRESN": 80.0,
    "VSSTRESU": "beats/min",
    "VSSTAT": "",
    "VSLOC": "",
    "VSLOBXFL": "",
    "VSREPNUM": 1.0,
    "VISITNUM": 2.0,
    "VISIT": "SCREENING 2",
    "EPOCH": "SCREENING",
    "VSDTC": "2013-02-02",
    "VSDY": -2.0
  },
  {
    "STUDYID": "CDISCPILOT01",
    "DOMAIN": "VS",
    "USUBJID": "CDISC005",
    "VSSEQ": 42.0,
    "VSTESTCD": "PULSE",
    "VSTEST": "Pulse Rate",
    "VSPOS": "STANDING",
    "VSORRES": "89",
    "VSORRESU": "beats/min",
    "VSSTRESC": "89",
    "VSSTRESN": 89.0,
    "VSSTRESU": "beats/min",
    "VSSTAT": "",
    "VSLOC": "",
    "VSLOBXFL": "",
    "VSREPNUM": 2.0,
    "VISITNUM": 2.0,
    "VISIT": "SCREENING 2",
    "EPOCH": "SCREENING",
    "VSDTC": "2013-02-02",
    "VSDY": -2.0
  },
  {
    "STUDYID": "CDISCPILOT01",
    "DOMAIN": "VS",
    "USUBJID": "CDISC005",
    "VSSEQ": 43.0,
    "VSTESTCD": "PULSE",
    "VSTEST": "Pulse Rate",
    "VSPOS": "STANDING",
    "VSORRES": "94",
    "VSORRESU": "beats/min",
    "VSSTRESC": "94",
    "VSSTRESN": 94.0,
    "VSSTRESU": "beats/min",
    "VSSTAT": "",
    "VSLOC": "",
    "VSLOBXFL": "",
    "VSREPNUM": 3.0,
    "VISITNUM": 2.0,
    "VISIT": "SCREENING 2",
    "EPOCH": "SCREENING",
    "VSDTC": "2013-02-02",
    "VSDY": -2.0
  },
  {
    "STUDYID": "CDISCPILOT01",
    "DOMAIN": "VS",
    "USUBJID": "CDISC005",
    "VSSEQ": 44.0,
    "VSTESTCD": "PULSE",
    "VSTEST": "Pulse Rate",
    "VSPOS": "SUPINE",
    "VSORRES": "77",
    "VSORRESU": "beats/min",
    "VSSTRESC": "77",
    "VSSTRESN": 77.0,
    "VSSTRESU": "beats/min",
    "VSSTAT": "",
    "VSLOC": "",
    "VSLOBXFL": "",
    "VSREPNUM": 1.0,
    "VISITNUM": 3.0,
    "VISIT": "BASELINE",
    "EPOCH": "SCREENING",
    "VSDTC": "2013-02-04",
    "VSDY": 1.0
  },
  {
    "STUDYID": "CDISCPILOT01",
    "DOMAIN": "VS",
    "USUBJID": "CDISC005",
    "VSSEQ": 45.0,
    "VSTESTCD": "PULSE",
    "VSTEST": "Pulse Rate",
    "VSPOS": "STANDING",
    "VSORRES": "87",
    "VSORRESU": "beats/min",
    "VSSTRESC": "87",
    "VSSTRESN": 87.0,
    "VSSTRESU": "beats/min",
    "VSSTAT": "",
    "VSLOC": "",
    "VSLOBXFL": "",
    "VSREPNUM": 2.0,
    "VISITNUM": 3.0,
    "VISIT": "BASELINE",
    "EPOCH": "SCREENING",
    "VSDTC": "2013-02-04",
    "VSDY": 1.0
  },
  {
    "STUDYID": "CDISCPILOT01",
    "DOMAIN": "VS",
    "USUBJID": "CDISC005",
    "VSSEQ": 46.0,
    "VSTESTCD": "PULSE",
    "VSTEST": "Pulse Rate",
    "VSPOS": "STANDING",
    "VSORRES": "89",
    "VSORRESU": "beats/min",
    "VSSTRESC": "89",
    "VSSTRESN": 89.0,
    "VSSTRESU": "beats/min",
    "VSSTAT": "",
    "VSLOC": "",
    "VSLOBXFL": "Y",
    "VSREPNUM": 3.0,
    "VISITNUM": 3.0,
    "VISIT": "BASELINE",
    "EPOCH": "SCREENING",
    "VSDTC": "2013-02-04",
    "VSDY": 1.0
  },
  {
    "STUDYID": "CDISCPILOT01",
    "DOMAIN": "VS",
    "USUBJID": "CDISC005",
    "VSSEQ": 47.0,
    "VSTESTCD": "PULSE",
    "VSTEST": "Pulse Rate",
    "VSPOS": "SUPINE",
    "VSORRES": "84",
    "VSORRESU": "beats/min",
    "VSSTRESC": "84",
    "VSSTRESN": 84.0,
    "VSSTRESU": "beats/min",
    "VSSTAT": "",
    "VSLOC": "",
    "VSLOBXFL": "",
    "VSREPNUM": 1.0,
    "VISITNUM": 4.0,
    "VISIT": "WEEK 2",
    "EPOCH": "TREATMENT",
    "VSDTC": "2013-02-19",
    "VSDY": 16.0
  },
  {
    "STUDYID": "CDISCPILOT01",
    "DOMAIN": "VS",
    "USUBJID": "CDISC005",
    "VSSEQ": 48.0,
    "VSTESTCD": "PULSE",
    "VSTEST": "Pulse Rate",
    "VSPOS": "STANDING",
    "VSORRES": "88",
    "VSORRESU": "beats/min",
    "VSSTRESC": "88",
    "VSSTRESN": 88.0,
    "VSSTRESU": "beats/min",
    "VSSTAT": "",
    "VSLOC": "",
    "VSLOBXFL": "",
    "VSREPNUM": 2.0,
    "VISITNUM": 4.0,
    "VISIT": "WEEK 2",
    "EPOCH": "TREATMENT",
    "VSDTC": "2013-02-19",
    "VSDY": 16.0
  },
  {
    "STUDYID": "CDISCPILOT01",
    "DOMAIN": "VS",
    "USUBJID": "CDISC005",
    "VSSEQ": 49.0,
    "VSTESTCD": "PULSE",
    "VSTEST": "Pulse Rate",
    "VSPOS": "STANDING",
    "VSORRES": "88",
    "VSORRESU": "beats/min",
    "VSSTRESC": "88",
    "VSSTRESN": 88.0,
    "VSSTRESU": "beats/min",
    "VSSTAT": "",
    "VSLOC": "",
    "VSLOBXFL": "",
    "VSREPNUM": 3.0,
    "VISITNUM": 4.0,
    "VISIT": "WEEK 2",
    "EPOCH": "TREATMENT",
    "VSDTC": "2013-02-19",
    "VSDY": 16.0
  },
  {
    "STUDYID": "CDISCPILOT01",
    "DOMAIN": "VS",
    "USUBJID": "CDISC005",
    "VSSEQ": 50.0,
    "VSTESTCD": "PULSE",
    "VSTEST": "Pulse Rate",
    "VSPOS": "SUPINE",
    "VSORRES": "70",
    "VSORRESU": "beats/min",
    "VSSTRESC": "70",
    "VSSTRESN": 70.0,
    "VSSTRESU": "beats/min",
    "VSSTAT": "",
    "VSLOC": "",
    "VSLOBXFL": "",
    "VSREPNUM": 1.0,
    "VISITNUM": 5.0,
    "VISIT": "WEEK 4",
    "EPOCH": "TREATMENT",
    "VSDTC": "2013-03-12",
    "VSDY": 37.0
  },
  {
    "STUDYID": "CDISCPILOT01",
    "DOMAIN": "VS",
    "USUBJID": "CDISC005",
    "VSSEQ": 51.0,
    "VSTESTCD": "PULSE",
    "VSTEST": "Pulse Rate",
    "VSPOS": "STANDING",
    "VSORRES": "82",
    "VSORRESU": "beats/min",
    "VSSTRESC": "82",
    "VSSTRESN": 82.0,
    "VSSTRESU": "beats/min",
    "VSSTAT": "",
    "VSLOC": "",
    "VSLOBXFL": "",
    "VSREPNUM": 2.0,
    "VISITNUM": 5.0,
    "VISIT": "WEEK 4",
    "EPOCH": "TREATMENT",
    "VSDTC": "2013-03-12",
    "VSDY": 37.0
  },
  {
    "STUDYID": "CDISCPILOT01",
    "DOMAIN": "VS",
    "USUBJID": "CDISC005",
    "VSSEQ": 52.0,
    "VSTESTCD": "PULSE",
    "VSTEST": "Pulse Rate",
    "VSPOS": "STANDING",
    "VSORRES": "78",
    "VSORRESU": "beats/min",
    "VSSTRESC": "78",
    "VSSTRESN": 78.0,
    "VSSTRESU": "beats/min",
    "VSSTAT": "",
    "VSLOC": "",
    "VSLOBXFL": "",
    "VSREPNUM": 3.0,
    "VISITNUM": 5.0,
    "VISIT": "WEEK 4",
    "EPOCH": "TREATMENT",
    "VSDTC": "2013-03-12",
    "VSDY": 37.0
  },
  {
    "STUDYID": "CDISCPILOT01",
    "DOMAIN": "VS",
    "USUBJID": "CDISC005",
    "VSSEQ": 53.0,
    "VSTESTCD": "PULSE",
    "VSTEST": "Pulse Rate",
    "VSPOS": "SUPINE",
    "VSORRES": "80",
    "VSORRESU": "beats/min",
    "VSSTRESC": "80",
    "VSSTRESN": 80.0,
    "VSSTRESU": "beats/min",
    "VSSTAT": "",
    "VSLOC": "",
    "VSLOBXFL": "",
    "VSREPNUM": 1.0,
    "VISITNUM": 7.0,
    "VISIT": "WEEK 6",
    "EPOCH": "TREATMENT",
    "VSDTC": "2013-03-19",
    "VSDY": 44.0
  },
  {
    "STUDYID": "CDISCPILOT01",
    "DOMAIN": "VS",
    "USUBJID": "CDISC005",
    "VSSEQ": 54.0,
    "VSTESTCD": "PULSE",
    "VSTEST": "Pulse Rate",
    "VSPOS": "STANDING",
    "VSORRES": "88",
    "VSORRESU": "beats/min",
    "VSSTRESC": "88",
    "VSSTRESN": 88.0,
    "VSSTRESU": "beats/min",
    "VSSTAT": "",
    "VSLOC": "",
    "VSLOBXFL": "",
    "VSREPNUM": 2.0,
    "VISITNUM": 7.0,
    "VISIT": "WEEK 6",
    "EPOCH": "TREATMENT",
    "VSDTC": "2013-03-19",
    "VSDY": 44.0
  },
  {
    "STUDYID": "CDISCPILOT01",
    "DOMAIN": "VS",
    "USUBJID": "CDISC005",
    "VSSEQ": 55.0,
    "VSTESTCD": "PULSE",
    "VSTEST": "Pulse Rate",
    "VSPOS": "STANDING",
    "VSORRES": "86",
    "VSORRESU": "beats/min",
    "VSSTRESC": "86",
    "VSSTRESN": 86.0,
    "VSSTRESU": "beats/min",
    "VSSTAT": "",
    "VSLOC": "",
    "VSLOBXFL": "",
    "VSREPNUM": 3.0,
    "VISITNUM": 7.0,
    "VISIT": "WEEK 6",
    "EPOCH": "TREATMENT",
    "VSDTC": "2013-03-19",
    "VSDY": 44.0
  },
  {
    "STUDYID": "CDISCPILOT01",
    "DOMAIN": "VS",
    "USUBJID": "CDISC005",
    "VSSEQ": 56.0,
    "VSTESTCD": "PULSE",
    "VSTEST": "Pulse Rate",
    "VSPOS": "SUPINE",
    "VSORRES": "70",
    "VSORRESU": "beats/min",
    "VSSTRESC": "70",
    "VSSTRESN": 70.0,
    "VSSTRESU": "beats/min",
    "VSSTAT": "",
    "VSLOC": "",
    "VSLOBXFL": "",
    "VSREPNUM": 1.0,
    "VISITNUM": 8.0,
    "VISIT": "WEEK 8",
    "EPOCH": "TREATMENT",
    "VSDTC": "2013-04-02",
    "VSDY": 58.0
  },
  {
    "STUDYID": "CDISCPILOT01",
    "DOMAIN": "VS",
    "USUBJID": "CDISC005",
    "VSSEQ": 57.0,
    "VSTESTCD": "PULSE",
    "VSTEST": "Pulse Rate",
    "VSPOS": "STANDING",
    "VSORRES": "86",
    "VSORRESU": "beats/min",
    "VSSTRESC": "86",
    "VSSTRESN": 86.0,
    "VSSTRESU": "beats/min",
    "VSSTAT": "",
    "VSLOC": "",
    "VSLOBXFL": "",
    "VSREPNUM": 2.0,
    "VISITNUM": 8.0,
    "VISIT": "WEEK 8",
    "EPOCH": "TREATMENT",
    "VSDTC": "2013-04-02",
    "VSDY": 58.0
  },
  {
    "STUDYID": "CDISCPILOT01",
    "DOMAIN": "VS",
    "USUBJID": "CDISC005",
    "VSSEQ": 58.0,
    "VSTESTCD": "PULSE",
    "VSTEST": "Pulse Rate",
    "VSPOS": "STANDING",
    "VSORRES": "81",
    "VSORRESU": "beats/min",
    "VSSTRESC": "81",
    "VSSTRESN": 81.0,
    "VSSTRESU": "beats/min",
    "VSSTAT": "",
    "VSLOC": "",
    "VSLOBXFL": "",
    "VSREPNUM": 3.0,
    "VISITNUM": 8.0,
    "VISIT": "WEEK 8",
    "EPOCH": "TREATMENT",
    "VSDTC": "2013-04-02",
    "VSDY": 58.0
  },
  {
    "STUDYID": "CDISCPILOT01",
    "DOMAIN": "VS",
    "USUBJID": "CDISC005",
    "VSSEQ": 59.0,
    "VSTESTCD": "PULSE",
    "VSTEST": "Pulse Rate",
    "VSPOS": "SUPINE",
    "VSORRES": "63",
    "VSORRESU": "beats/min",
    "VSSTRESC": "63",
    "VSSTRESN": 63.0,
    "VSSTRESU": "beats/min",
    "VSSTAT": "",
    "VSLOC": "",
    "VSLOBXFL": "",
    "VSREPNUM": 1.0,
    "VISITNUM": 9.0,
    "VISIT": "WEEK 12",
    "EPOCH": "TREATMENT",
    "VSDTC": "2013-04-30",
    "VSDY": 86.0
  },
  {
    "STUDYID": "CDISCPILOT01",
    "DOMAIN": "VS",
    "USUBJID": "CDISC005",
    "VSSEQ": 60.0,
    "VSTESTCD": "PULSE",
    "VSTEST": "Pulse Rate",
    "VSPOS": "STANDING",
    "VSORRES": "81",
    "VSORRESU": "beats/min",
    "VSSTRESC": "81",
    "VSSTRESN": 81.0,
    "VSSTRESU": "beats/min",
    "VSSTAT": "",
    "VSLOC": "",
    "VSLOBXFL": "",
    "VSREPNUM": 2.0,
    "VISITNUM": 9.0,
    "VISIT": "WEEK 12",
    "EPOCH": "TREATMENT",
    "VSDTC": "2013-04-30",
    "VSDY": 86.0
  },
  {
    "STUDYID": "CDISCPILOT01",
    "DOMAIN": "VS",
    "USUBJID": "CDISC005",
    "VSSEQ": 61.0,
    "VSTESTCD": "PULSE",
    "VSTEST": "Pulse Rate",
    "VSPOS": "STANDING",
    "VSORRES": "76",
    "VSORRESU": "beats/min",
    "VSSTRESC": "76",
    "VSSTRESN": 76.0,
    "VSSTRESU": "beats/min",
    "VSSTAT": "",
    "VSLOC": "",
    "VSLOBXFL": "",
    "VSREPNUM": 3.0,
    "VISITNUM": 9.0,
    "VISIT": "WEEK 12",
    "EPOCH": "TREATMENT",
    "VSDTC": "2013-04-30",
    "VSDY": 86.0
  },
  {
    "STUDYID": "CDISCPILOT01",
    "DOMAIN": "VS",
    "USUBJID": "CDISC005",
    "VSSEQ": 62.0,
    "VSTESTCD": "PULSE",
    "VSTEST": "Pulse Rate",
    "VSPOS": "SUPINE",
    "VSORRES": "70",
    "VSORRESU": "beats/min",
    "VSSTRESC": "70",
    "VSSTRESN": 70.0,
    "VSSTRESU": "beats/min",
    "VSSTAT": "",
    "VSLOC": "",
    "VSLOBXFL": "",
    "VSREPNUM": 1.0,
    "VISITNUM": 10.0,
    "VISIT": "WEEK 16",
    "EPOCH": "TREATMENT",
    "VSDTC": "2013-05-30",
    "VSDY": 116.0
  },
  {
    "STUDYID": "CDISCPILOT01",
    "DOMAIN": "VS",
    "USUBJID": "CDISC005",
    "VSSEQ": 63.0,
    "VSTESTCD": "PULSE",
    "VSTEST": "Pulse Rate",
    "VSPOS": "STANDING",
    "VSORRES": "82",
    "VSORRESU": "beats/min",
    "VSSTRESC": "82",
    "VSSTRESN": 82.0,
    "VSSTRESU": "beats/min",
    "VSSTAT": "",
    "VSLOC": "",
    "VSLOBXFL": "",
    "VSREPNUM": 2.0,
    "VISITNUM": 10.0,
    "VISIT": "WEEK 16",
    "EPOCH": "TREATMENT",
    "VSDTC": "2013-05-30",
    "VSDY": 116.0
  },
  {
    "STUDYID": "CDISCPILOT01",
    "DOMAIN": "VS",
    "USUBJID": "CDISC005",
    "VSSEQ": 64.0,
    "VSTESTCD": "PULSE",
    "VSTEST": "Pulse Rate",
    "VSPOS": "STANDING",
    "VSORRES": "78",
    "VSORRESU": "beats/min",
    "VSSTRESC": "78",
    "VSSTRESN": 78.0,
    "VSSTRESU": "beats/min",
    "VSSTAT": "",
    "VSLOC": "",
    "VSLOBXFL": "",
    "VSREPNUM": 3.0,
    "VISITNUM": 10.0,
    "VISIT": "WEEK 16",
    "EPOCH": "TREATMENT",
    "VSDTC": "2013-05-30",
    "VSDY": 116.0
  },
  {
    "STUDYID": "CDISCPILOT01",
    "DOMAIN": "VS",
    "USUBJID": "CDISC005",
    "VSSEQ": 65.0,
    "VSTESTCD": "PULSE",
    "VSTEST": "Pulse Rate",
    "VSPOS": "SUPINE",
    "VSORRES": "73",
    "VSORRESU": "beats/min",
    "VSSTRESC": "73",
    "VSSTRESN": 73.0,
    "VSSTRESU": "beats/min",
    "VSSTAT": "",
    "VSLOC": "",
    "VSLOBXFL": "",
    "VSREPNUM": 1.0,
    "VISITNUM": 11.0,
    "VISIT": "WEEK 20",
    "EPOCH": "TREATMENT",
    "VSDTC": "2013-06-25",
    "VSDY": 142.0
  },
  {
    "STUDYID": "CDISCPILOT01",
    "DOMAIN": "VS",
    "USUBJID": "CDISC005",
    "VSSEQ": 66.0,
    "VSTESTCD": "PULSE",
    "VSTEST": "Pulse Rate",
    "VSPOS": "STANDING",
    "VSORRES": "86",
    "VSORRESU": "beats/min",
    "VSSTRESC": "86",
    "VSSTRESN": 86.0,
    "VSSTRESU": "beats/min",
    "VSSTAT": "",
    "VSLOC": "",
    "VSLOBXFL": "",
    "VSREPNUM": 2.0,
    "VISITNUM": 11.0,
    "VISIT": "WEEK 20",
    "EPOCH": "TREATMENT",
    "VSDTC": "2013-06-25",
    "VSDY": 142.0
  },
  {
    "STUDYID": "CDISCPILOT01",
    "DOMAIN": "VS",
    "USUBJID": "CDISC005",
    "VSSEQ": 67.0,
    "VSTESTCD": "PULSE",
    "VSTEST": "Pulse Rate",
    "VSPOS": "STANDING",
    "VSORRES": "85",
    "VSORRESU": "beats/min",
    "VSSTRESC": "85",
    "VSSTRESN": 85.0,
    "VSSTRESU": "beats/min",
    "VSSTAT": "",
    "VSLOC": "",
    "VSLOBXFL": "",
    "VSREPNUM": 3.0,
    "VISITNUM": 11.0,
    "VISIT": "WEEK 20",
    "EPOCH": "TREATMENT",
    "VSDTC": "2013-06-25",
    "VSDY": 142.0
  },
  {
    "STUDYID": "CDISCPILOT01",
    "DOMAIN": "VS",
    "USUBJID": "CDISC005",
    "VSSEQ": 68.0,
    "VSTESTCD": "PULSE",
    "VSTEST": "Pulse Rate",
    "VSPOS": "SUPINE",
    "VSORRES": "92",
    "VSORRESU": "beats/min",
    "VSSTRESC": "92",
    "VSSTRESN": 92.0,
    "VSSTRESU": "beats/min",
    "VSSTAT": "",
    "VSLOC": "",
    "VSLOBXFL": "",
    "VSREPNUM": 1.0,
    "VISITNUM": 12.0,
    "VISIT": "WEEK 24",
    "EPOCH": "TREATMENT",
    "VSDTC": "2013-07-30",
    "VSDY": 177.0
  },
  {
    "STUDYID": "CDISCPILOT01",
    "DOMAIN": "VS",
    "USUBJID": "CDISC005",
    "VSSEQ": 69.0,
    "VSTESTCD": "PULSE",
    "VSTEST": "Pulse Rate",
    "VSPOS": "STANDING",
    "VSORRES": "98",
    "VSORRESU": "beats/min",
    "VSSTRESC": "98",
    "VSSTRESN": 98.0,
    "VSSTRESU": "beats/min",
    "VSSTAT": "",
    "VSLOC": "",
    "VSLOBXFL": "",
    "VSREPNUM": 2.0,
    "VISITNUM": 12.0,
    "VISIT": "WEEK 24",
    "EPOCH": "TREATMENT",
    "VSDTC": "2013-07-30",
    "VSDY": 177.0
  },
  {
    "STUDYID": "CDISCPILOT01",
    "DOMAIN": "VS",
    "USUBJID": "CDISC005",
    "VSSEQ": 70.0,
    "VSTESTCD": "PULSE",
    "VSTEST": "Pulse Rate",
    "VSPOS": "STANDING",
    "VSORRES": "96",
    "VSORRESU": "beats/min",
    "VSSTRESC": "96",
    "VSSTRESN": 96.0,
    "VSSTRESU": "beats/min",
    "VSSTAT": "",
    "VSLOC": "",
    "VSLOBXFL": "",
    "VSREPNUM": 3.0,
    "VISITNUM": 12.0,
    "VISIT": "WEEK 24",
    "EPOCH": "TREATMENT",
    "VSDTC": "2013-07-30",
    "VSDY": 177.0
  },
  {
    "STUDYID": "CDISCPILOT01",
    "DOMAIN": "VS",
    "USUBJID": "CDISC005",
    "VSSEQ": 71.0,
    "VSTESTCD": "PULSE",
    "VSTEST": "Pulse Rate",
    "VSPOS": "SUPINE",
    "VSORRES": "79",
    "VSORRESU": "beats/min",
    "VSSTRESC": "79",
    "VSSTRESN": 79.0,
    "VSSTRESU": "beats/min",
    "VSSTAT": "",
    "VSLOC": "",
    "VSLOBXFL": "",
    "VSREPNUM": 1.0,
    "VISITNUM": 13.0,
    "VISIT": "WEEK 26",
    "EPOCH": "TREATMENT",
    "VSDTC": "2013-08-06",
    "VSDY": 184.0
  },
  {
    "STUDYID": "CDISCPILOT01",
    "DOMAIN": "VS",
    "USUBJID": "CDISC005",
    "VSSEQ": 72.0,
    "VSTESTCD": "PULSE",
    "VSTEST": "Pulse Rate",
    "VSPOS": "STANDING",
    "VSORRES": "86",
    "VSORRESU": "beats/min",
    "VSSTRESC": "86",
    "VSSTRESN": 86.0,
    "VSSTRESU": "beats/min",
    "VSSTAT": "",
    "VSLOC": "",
    "VSLOBXFL": "",
    "VSREPNUM": 2.0,
    "VISITNUM": 13.0,
    "VISIT": "WEEK 26",
    "EPOCH": "TREATMENT",
    "VSDTC": "2013-08-06",
    "VSDY": 184.0
  },
  {
    "STUDYID": "CDISCPILOT01",
    "DOMAIN": "VS",
    "USUBJID": "CDISC005",
    "VSSEQ": 73.0,
    "VSTESTCD": "PULSE",
    "VSTEST": "Pulse Rate",
    "VSPOS": "STANDING",
    "VSORRES": "88",
    "VSORRESU": "beats/min",
    "VSSTRESC": "88",
    "VSSTRESN": 88.0,
    "VSSTRESU": "beats/min",
    "VSSTAT": "",
    "VSLOC": "",
    "VSLOBXFL": "",
    "VSREPNUM": 3.0,
    "VISITNUM": 13.0,
    "VISIT": "WEEK 26",
    "EPOCH": "TREATMENT",
    "VSDTC": "2013-08-06",
    "VSDY": 184.0
  },
  {
    "STUDYID": "CDISCPILOT01",
    "DOMAIN": "VS",
    "USUBJID": "CDISC005",
    "VSSEQ": 74.0,
    "VSTESTCD": "SYSBP",
    "VSTEST": "Systolic Blood Pressure",
    "VSPOS": "SUPINE",
    "VSORRES": "146",
    "VSORRESU": "mmHg",
    "VSSTRESC": "146",
    "VSSTRESN": 146.0,
    "VSSTRESU": "mmHg",
    "VSSTAT": "",
    "VSLOC": "",
    "VSLOBXFL": "",
    "VSREPNUM": 1.0,
    "VISITNUM": 1.0,
    "VISIT": "SCREENING 1",
    "EPOCH": "SCREENING",
    "VSDTC": "2013-01-22",
    "VSDY": -13.0
  },
  {
    "STUDYID": "CDISCPILOT01",
    "DOMAIN": "VS",
    "USUBJID": "CDISC005",
    "VSSEQ": 75.0,
    "VSTESTCD": "SYSBP",
    "VSTEST": "Systolic Blood Pressure",
    "VSPOS": "STANDING",
    "VSORRES": "146",
    "VSORRESU": "mmHg",
    "VSSTRESC": "146",
    "VSSTRESN": 146.0,
    "VSSTRESU": "mmHg",
    "VSSTAT": "",
    "VSLOC": "",
    "VSLOBXFL": "",
    "VSREPNUM": 2.0,
    "VISITNUM": 1.0,
    "VISIT": "SCREENING 1",
    "EPOCH": "SCREENING",
    "VSDTC": "2013-01-22",
    "VSDY": -13.0
  },
  {
    "STUDYID": "CDISCPILOT01",
    "DOMAIN": "VS",
    "USUBJID": "CDISC005",
    "VSSEQ": 76.0,
    "VSTESTCD": "SYSBP",
    "VSTEST": "Systolic Blood Pressure",
    "VSPOS": "STANDING",
    "VSORRES": "138",
    "VSORRESU": "mmHg",
    "VSSTRESC": "138",
    "VSSTRESN": 138.0,
    "VSSTRESU": "mmHg",
    "VSSTAT": "",
    "VSLOC": "",
    "VSLOBXFL": "",
    "VSREPNUM": 3.0,
    "VISITNUM": 1.0,
    "VISIT": "SCREENING 1",
    "EPOCH": "SCREENING",
    "VSDTC": "2013-01-22",
    "VSDY": -13.0
  },
  {
    "STUDYID": "CDISCPILOT01",
    "DOMAIN": "VS",
    "USUBJID": "CDISC005",
    "VSSEQ": 77.0,
    "VSTESTCD": "SYSBP",
    "VSTEST": "Systolic Blood Pressure",
    "VSPOS": "SUPINE",
    "VSORRES": "129",
    "VSORRESU": "mmHg",
    "VSSTRESC": "129",
    "VSSTRESN": 129.0,
    "VSSTRESU": "mmHg",
    "VSSTAT": "",
    "VSLOC": "",
    "VSLOBXFL": "",
    "VSREPNUM": 1.0,
    "VISITNUM": 2.0,
    "VISIT": "SCREENING 2",
    "EPOCH": "SCREENING",
    "VSDTC": "2013-02-02",
    "VSDY": -2.0
  },
  {
    "STUDYID": "CDISCPILOT01",
    "DOMAIN": "VS",
    "USUBJID": "CDISC005",
    "VSSEQ": 78.0,
    "VSTESTCD": "SYSBP",
    "VSTEST": "Systolic Blood Pressure",
    "VSPOS": "STANDING",
    "VSORRES": "136",
    "VSORRESU": "mmHg",
    "VSSTRESC": "136",
    "VSSTRESN": 136.0,
    "VSSTRESU": "mmHg",
    "VSSTAT": "",
    "VSLOC": "",
    "VSLOBXFL": "",
    "VSREPNUM": 2.0,
    "VISITNUM": 2.0,
    "VISIT": "SCREENING 2",
    "EPOCH": "SCREENING",
    "VSDTC": "2013-02-02",
    "VSDY": -2.0
  },
  {
    "STUDYID": "CDISCPILOT01",
    "DOMAIN": "VS",
    "USUBJID": "CDISC005",
    "VSSEQ": 79.0,
    "VSTESTCD": "SYSBP",
    "VSTEST": "Systolic Blood Pressure",
    "VSPOS": "STANDING",
    "VSORRES": "131",
    "VSORRESU": "mmHg",
    "VSSTRESC": "131",
    "VSSTRESN": 131.0,
    "VSSTRESU": "mmHg",
    "VSSTAT": "",
    "VSLOC": "",
    "VSLOBXFL": "",
    "VSREPNUM": 3.0,
    "VISITNUM": 2.0,
    "VISIT": "SCREENING 2",
    "EPOCH": "SCREENING",
    "VSDTC": "2013-02-02",
    "VSDY": -2.0
  },
  {
    "STUDYID": "CDISCPILOT01",
    "DOMAIN": "VS",
    "USUBJID": "CDISC005",
    "VSSEQ": 80.0,
    "VSTESTCD": "SYSBP",
    "VSTEST": "Systolic Blood Pressure",
    "VSPOS": "SUPINE",
    "VSORRES": "137",
    "VSORRESU": "mmHg",
    "VSSTRESC": "137",
    "VSSTRESN": 137.0,
    "VSSTRESU": "mmHg",
    "VSSTAT": "",
    "VSLOC": "",
    "VSLOBXFL": "",
    "VSREPNUM": 1.0,
    "VISITNUM": 3.0,
    "VISIT": "BASELINE",
    "EPOCH": "SCREENING",
    "VSDTC": "2013-02-04",
    "VSDY": 1.0
  },
  {
    "STUDYID": "CDISCPILOT01",
    "DOMAIN": "VS",
    "USUBJID": "CDISC005",
    "VSSEQ": 81.0,
    "VSTESTCD": "SYSBP",
    "VSTEST": "Systolic Blood Pressure",
    "VSPOS": "STANDING",
    "VSORRES": "138",
    "VSORRESU": "mmHg",
    "VSSTRESC": "138",
    "VSSTRESN": 138.0,
    "VSSTRESU": "mmHg",
    "VSSTAT": "",
    "VSLOC": "",
    "VSLOBXFL": "",
    "VSREPNUM": 2.0,
    "VISITNUM": 3.0,
    "VISIT": "BASELINE",
    "EPOCH": "SCREENING",
    "VSDTC": "2013-02-04",
    "VSDY": 1.0
  },
  {
    "STUDYID": "CDISCPILOT01",
    "DOMAIN": "VS",
    "USUBJID": "CDISC005",
    "VSSEQ": 82.0,
    "VSTESTCD": "SYSBP",
    "VSTEST": "Systolic Blood Pressure",
    "VSPOS": "STANDING",
    "VSORRES": "131",
    "VSORRESU": "mmHg",
    "VSSTRESC": "131",
    "VSSTRESN": 131.0,
    "VSSTRESU": "mmHg",
    "VSSTAT": "",
    "VSLOC": "",
    "VSLOBXFL": "Y",
    "VSREPNUM": 3.0,
    "VISITNUM": 3.0,
    "VISIT": "BASELINE",
    "EPOCH": "SCREENING",
    "VSDTC": "2013-02-04",
    "VSDY": 1.0
  },
  {
    "STUDYID": "CDISCPILOT01",
    "DOMAIN": "VS",
    "USUBJID": "CDISC005",
    "VSSEQ": 83.0,
    "VSTESTCD": "SYSBP",
    "VSTEST": "Systolic Blood Pressure",
    "VSPOS": "SUPINE",
    "VSORRES": "138",
    "VSORRESU": "mmHg",
    "VSSTRESC": "138",
    "VSSTRESN": 138.0,
    "VSSTRESU": "mmHg",
    "VSSTAT": "",
    "VSLOC": "",
    "VSLOBXFL": "",
    "VSREPNUM": 1.0,
    "VISITNUM": 4.0,
    "VISIT": "WEEK 2",
    "EPOCH": "TREATMENT",
    "VSDTC": "2013-02-19",
    "VSDY": 16.0
  },
  {
    "STUDYID": "CDISCPILOT01",
    "DOMAIN": "VS",
    "USUBJID": "CDISC005",
    "VSSEQ": 84.0,
