<?xml version="1.0" encoding="UTF-8"?>
<?xml-stylesheet type="text/xsl" href="stylesheets/define2-1.xsl"?>
<ODM xmlns="http://www.cdisc.org/ns/odm/v1.3" xmlns:xlink="http://www.w3.org/1999/xlink" xmlns:def="http://www.cdisc.org/ns/def/v2.1" ODMVersion="1.3.2" FileOID="www.cdisc.org/StudyCDISC01_1/1/Define-XML_2.1.0" FileType="Snapshot" CreationDateTime="2024-08-29T09:53:42.385602" Originator="Study Service" SourceSystem="Study service" SourceSystemVersion="Alpha1" def:Context="Other">
   <Study OID="H2Q-MC-LZZT">
      <GlobalVariables>
         <StudyName>H2Q-MC-LZZT</StudyName>
         <StudyDescription>The discontinuation rate associated with this oral dosing regimen was 58.6% in previous studies, and alternative clinical strategies have been sought to improve tolerance for the compound. To that end, development of a Transdermal Therapeutic System (TTS) has been initiated.</StudyDescription>
         <ProtocolName>Protocol_Document_CDISC PILOT - LZZT</ProtocolName>
      </GlobalVariables>
      <MetaDataVersion OID="e3651ef6-0d46-4f98-8c44-1dae4e77cb4d" Name="H2Q-MC-LZZT" Description="This is some kind of description" def:DefineVersion="2.1.7">
         <!--*********************************-->
         <!--Standard Definitions-->
         <!--*********************************-->
         <def:Standards>
            <def:Standard OID="STD.1" Name="SDTMIG" Type="IG" Version="3.4" Status="Final" def:CommentOID="COM.STD.1" />
            <def:Standard OID="STD.2" Name="CDISC/NCI" Type="CT" Version="2023-12-09" Status="Final" />
         </def:Standards>
         <!--************************************************************************************************************************-->
         <!--Value List Definitions Section (Required for Supplemental Qualifiers, Optional for other Normalized (Vertical) Datasets) -->
         <!--(Note that any definitions not provided at a Value Level will be inherited from the parent item definition)-->
         <!--************************************************************************************************************************-->
         <def:ValueListDef OID="VL.LB.LBORRESU">
            <ItemRef ItemOID="IDVO.LB.LBORRESU.ALT" OrderNumber="1" Mandatory="No">
               <def:WhereClauseRef WhereClauseOID="WC.LB.LBORRESU.ALT" />
            </ItemRef>
            <ItemRef ItemOID="IDVO.LB.LBORRESU.ALP" OrderNumber="2" Mandatory="No">
               <def:WhereClauseRef WhereClauseOID="WC.LB.LBORRESU.ALP" />
            </ItemRef>
            <ItemRef ItemOID="IDVO.LB.LBORRESU.AST" OrderNumber="3" Mandatory="No">
               <def:WhereClauseRef WhereClauseOID="WC.LB.LBORRESU.AST" />
            </ItemRef>
            <ItemRef ItemOID="IDVO.LB.LBORRESU.CREAT" OrderNumber="4" Mandatory="No">
               <def:WhereClauseRef WhereClauseOID="WC.LB.LBORRESU.CREAT" />
            </ItemRef>
            <ItemRef ItemOID="IDVO.LB.LBORRESU.HBA1C" OrderNumber="5" Mandatory="No">
               <def:WhereClauseRef WhereClauseOID="WC.LB.LBORRESU.HBA1C" />
            </ItemRef>
            <ItemRef ItemOID="IDVO.LB.LBORRESU.K" OrderNumber="6" Mandatory="No">
               <def:WhereClauseRef WhereClauseOID="WC.LB.LBORRESU.K" />
            </ItemRef>
            <ItemRef ItemOID="IDVO.LB.LBORRESU.SODIUM" OrderNumber="7" Mandatory="No">
               <def:WhereClauseRef WhereClauseOID="WC.LB.LBORRESU.SODIUM" />
            </ItemRef>
         </def:ValueListDef>
         <def:ValueListDef OID="VL.VS.VSORRESU">
            <ItemRef ItemOID="IDVO.VS.VSORRESU.HEIGHT" OrderNumber="1" Mandatory="No">
               <def:WhereClauseRef WhereClauseOID="WC.VS.VSORRESU.HEIGHT" />
            </ItemRef>
            <ItemRef ItemOID="IDVO.VS.VSORRESU.TEMP" OrderNumber="2" Mandatory="No">
               <def:WhereClauseRef WhereClauseOID="WC.VS.VSORRESU.TEMP" />
            </ItemRef>
            <ItemRef ItemOID="IDVO.VS.VSORRESU.WEIGHT" OrderNumber="3" Mandatory="No">
               <def:WhereClauseRef WhereClauseOID="WC.VS.VSORRESU.WEIGHT" />
            </ItemRef>
         </def:ValueListDef>
         <def:ValueListDef OID="VL.VS.VSLOC">
            <ItemRef ItemOID="IDVO.VS.VSLOC.DIABP" OrderNumber="1" Mandatory="No">
               <def:WhereClauseRef WhereClauseOID="WC.VS.VSLOC.DIABP" />
            </ItemRef>
            <ItemRef ItemOID="IDVO.VS.VSLOC.HR" OrderNumber="2" Mandatory="No">
               <def:WhereClauseRef WhereClauseOID="WC.VS.VSLOC.HR" />
            </ItemRef>
            <ItemRef ItemOID="IDVO.VS.VSLOC.SYSBP" OrderNumber="3" Mandatory="No">
               <def:WhereClauseRef WhereClauseOID="WC.VS.VSLOC.SYSBP" />
            </ItemRef>
            <ItemRef ItemOID="IDVO.VS.VSLOC.TEMP" OrderNumber="4" Mandatory="No">
               <def:WhereClauseRef WhereClauseOID="WC.VS.VSLOC.TEMP" />
            </ItemRef>
         </def:ValueListDef>
         <def:ValueListDef OID="VL.VS.VSPOS">
            <ItemRef ItemOID="IDVO.VS.VSPOS.DIABP" OrderNumber="1" Mandatory="No">
               <def:WhereClauseRef WhereClauseOID="WC.VS.VSPOS.DIABP" />
            </ItemRef>
            <ItemRef ItemOID="IDVO.VS.VSPOS.HR" OrderNumber="2" Mandatory="No">
               <def:WhereClauseRef WhereClauseOID="WC.VS.VSPOS.HR" />
            </ItemRef>
            <ItemRef ItemOID="IDVO.VS.VSPOS.SYSBP" OrderNumber="3" Mandatory="No">
               <def:WhereClauseRef WhereClauseOID="WC.VS.VSPOS.SYSBP" />
            </ItemRef>
         </def:ValueListDef>
         <!--*****************************************************************************-->
         <!--WhereClause Definitions Section (Used/Referenced in Value List Definitions)-->
         <!--*****************************************************************************-->
         <def:WhereClauseDef OID="WC.LB.LBORRESU.ALT">
            <RangeCheck Comparator="EQ" SoftHard="Soft" def:ItemOID="IT.LB.LBTESTCD">
               <CheckValue>ALT</CheckValue>
            </RangeCheck>
         </def:WhereClauseDef>
         <def:WhereClauseDef OID="WC.LB.LBORRESU.ALP">
            <RangeCheck Comparator="EQ" SoftHard="Soft" def:ItemOID="IT.LB.LBTESTCD">
               <CheckValue>ALP</CheckValue>
            </RangeCheck>
         </def:WhereClauseDef>
         <def:WhereClauseDef OID="WC.LB.LBORRESU.AST">
            <RangeCheck Comparator="EQ" SoftHard="Soft" def:ItemOID="IT.LB.LBTESTCD">
               <CheckValue>AST</CheckValue>
            </RangeCheck>
         </def:WhereClauseDef>
         <def:WhereClauseDef OID="WC.LB.LBORRESU.CREAT">
            <RangeCheck Comparator="EQ" SoftHard="Soft" def:ItemOID="IT.LB.LBTESTCD">
               <CheckValue>CREAT</CheckValue>
            </RangeCheck>
         </def:WhereClauseDef>
         <def:WhereClauseDef OID="WC.LB.LBORRESU.HBA1C">
            <RangeCheck Comparator="EQ" SoftHard="Soft" def:ItemOID="IT.LB.LBTESTCD">
               <CheckValue>HBA1C</CheckValue>
            </RangeCheck>
         </def:WhereClauseDef>
         <def:WhereClauseDef OID="WC.LB.LBORRESU.K">
            <RangeCheck Comparator="EQ" SoftHard="Soft" def:ItemOID="IT.LB.LBTESTCD">
               <CheckValue>K</CheckValue>
            </RangeCheck>
         </def:WhereClauseDef>
         <def:WhereClauseDef OID="WC.LB.LBORRESU.SODIUM">
            <RangeCheck Comparator="EQ" SoftHard="Soft" def:ItemOID="IT.LB.LBTESTCD">
               <CheckValue>SODIUM</CheckValue>
            </RangeCheck>
         </def:WhereClauseDef>
         <def:WhereClauseDef OID="WC.VS.VSLOC.DIABP">
            <RangeCheck Comparator="EQ" SoftHard="Soft" def:ItemOID="IT.VS.VSTESTCD">
               <CheckValue>DIABP</CheckValue>
            </RangeCheck>
         </def:WhereClauseDef>
         <def:WhereClauseDef OID="WC.VS.VSPOS.DIABP">
            <RangeCheck Comparator="EQ" SoftHard="Soft" def:ItemOID="IT.VS.VSTESTCD">
               <CheckValue>DIABP</CheckValue>
            </RangeCheck>
         </def:WhereClauseDef>
         <def:WhereClauseDef OID="WC.VS.VSLOC.HR">
            <RangeCheck Comparator="EQ" SoftHard="Soft" def:ItemOID="IT.VS.VSTESTCD">
               <CheckValue>HR</CheckValue>
            </RangeCheck>
         </def:WhereClauseDef>
         <def:WhereClauseDef OID="WC.VS.VSPOS.HR">
            <RangeCheck Comparator="EQ" SoftHard="Soft" def:ItemOID="IT.VS.VSTESTCD">
               <CheckValue>HR</CheckValue>
            </RangeCheck>
         </def:WhereClauseDef>
         <def:WhereClauseDef OID="WC.VS.VSORRESU.HEIGHT">
            <RangeCheck Comparator="EQ" SoftHard="Soft" def:ItemOID="IT.VS.VSTESTCD">
               <CheckValue>HEIGHT</CheckValue>
            </RangeCheck>
         </def:WhereClauseDef>
         <def:WhereClauseDef OID="WC.VS.VSLOC.SYSBP">
            <RangeCheck Comparator="EQ" SoftHard="Soft" def:ItemOID="IT.VS.VSTESTCD">
               <CheckValue>SYSBP</CheckValue>
            </RangeCheck>
         </def:WhereClauseDef>
         <def:WhereClauseDef OID="WC.VS.VSPOS.SYSBP">
            <RangeCheck Comparator="EQ" SoftHard="Soft" def:ItemOID="IT.VS.VSTESTCD">
               <CheckValue>SYSBP</CheckValue>
            </RangeCheck>
         </def:WhereClauseDef>
         <def:WhereClauseDef OID="WC.VS.VSLOC.TEMP">
            <RangeCheck Comparator="EQ" SoftHard="Soft" def:ItemOID="IT.VS.VSTESTCD">
               <CheckValue>TEMP</CheckValue>
            </RangeCheck>
         </def:WhereClauseDef>
         <def:WhereClauseDef OID="WC.VS.VSORRESU.TEMP">
            <RangeCheck Comparator="EQ" SoftHard="Soft" def:ItemOID="IT.VS.VSTESTCD">
               <CheckValue>TEMP</CheckValue>
            </RangeCheck>
         </def:WhereClauseDef>
         <def:WhereClauseDef OID="WC.VS.VSORRESU.WEIGHT">
            <RangeCheck Comparator="EQ" SoftHard="Soft" def:ItemOID="IT.VS.VSTESTCD">
               <CheckValue>WEIGHT</CheckValue>
            </RangeCheck>
         </def:WhereClauseDef>
         <!--************************************************************************************-->
         <!--ItemGroupDef Definitions Section (Datasets and and first set of variable properties)-->
         <!--************************************************************************************-->
         <ItemGroupDef OID="2863a994-be1c-4a32-8bcd-1d3e23fabc33" Domain="AE" Name="AE" Repeating="No" IsReferenceData="No" SASDatasetName="AE" def:Structure="tbc" Purpose="Tabulation" def:StandardOID="STD.1" def:ArchiveLocationID="LI.AE">
            <Description>
               <TranslatedText xml:lang="en">Adverse Events</TranslatedText>
            </Description>
            <ItemRef ItemOID="IT.AE.STUDYID" Mandatory="Yes" OrderNumber="1" />
            <ItemRef ItemOID="IT.AE.AEDECOD" Mandatory="Yes" OrderNumber="13" />
            <ItemRef ItemOID="IT.AE.DOMAIN" Mandatory="Yes" OrderNumber="2" />
            <ItemRef ItemOID="IT.AE.USUBJID" Mandatory="Yes" OrderNumber="3" />
            <ItemRef ItemOID="IT.AE.AESEQ" Mandatory="Yes" OrderNumber="5" />
            <ItemRef ItemOID="IT.AE.AETERM" Mandatory="Yes" OrderNumber="9" />
            <ItemRef ItemOID="IT.AE.AELLT" Mandatory="Yes" OrderNumber="11" />
            <ItemRef ItemOID="IT.AE.AELLTCD" Mandatory="Yes" OrderNumber="12" />
            <ItemRef ItemOID="IT.AE.AEPTCD" Mandatory="Yes" OrderNumber="14" />
            <ItemRef ItemOID="IT.AE.AEHLT" Mandatory="Yes" OrderNumber="15" />
            <ItemRef ItemOID="IT.AE.AEHLTCD" Mandatory="Yes" OrderNumber="16" />
            <ItemRef ItemOID="IT.AE.AEHLGT" Mandatory="Yes" OrderNumber="17" />
            <ItemRef ItemOID="IT.AE.AEHLGTCD" Mandatory="Yes" OrderNumber="18" />
            <ItemRef ItemOID="IT.AE.AEBODSYS" Mandatory="Yes" OrderNumber="22" />
            <ItemRef ItemOID="IT.AE.AEBDSYCD" Mandatory="Yes" OrderNumber="23" />
            <ItemRef ItemOID="IT.AE.AESOC" Mandatory="Yes" OrderNumber="24" />
            <ItemRef ItemOID="IT.AE.AESOCCD" Mandatory="Yes" OrderNumber="25" />
            <ItemRef ItemOID="IT.AE.AESER" Mandatory="Yes" OrderNumber="28" />
            <ItemRef ItemOID="IT.AE.AEACN" Mandatory="Yes" OrderNumber="29" />
            <ItemRef ItemOID="IT.AE.AEREL" Mandatory="Yes" OrderNumber="32" />
            <ItemRef ItemOID="IT.AE.AESTDTC" Mandatory="Yes" OrderNumber="53" />
            <ItemRef ItemOID="IT.AE.AEENDTC" Mandatory="Yes" OrderNumber="54" />
            <ItemRef ItemOID="IT.AE.AEACNDEV" Mandatory="No" OrderNumber="31" />
            <ItemRef ItemOID="IT.AE.AEACNOTH" Mandatory="No" OrderNumber="30" />
            <ItemRef ItemOID="IT.AE.AERELNST" Mandatory="No" OrderNumber="34" />
            <ItemRef ItemOID="IT.AE.AERLDEV" Mandatory="No" OrderNumber="33" />
            <ItemRef ItemOID="IT.AE.AESEV" Mandatory="No" OrderNumber="27" />
            <ItemRef ItemOID="IT.AE.AETOXGR" Mandatory="No" OrderNumber="50" />
            <def:Class Name="EVENTS" />
            <def:leaf ID="LI.AE" xlink:href="ae.xpt">
               <def:title>ae.xpt</def:title>
            </def:leaf>
         </ItemGroupDef>
         <ItemGroupDef OID="4ca5f489-378c-42fd-a9e7-b1dbee52115f" Domain="DM" Name="DM" Repeating="No" IsReferenceData="No" SASDatasetName="DM" def:Structure="tbc" Purpose="Tabulation" def:StandardOID="STD.1" def:ArchiveLocationID="LI.DM">
            <Description>
               <TranslatedText xml:lang="en">Demographics</TranslatedText>
            </Description>
            <ItemRef ItemOID="IT.DM.STUDYID" Mandatory="Yes" OrderNumber="1" />
            <ItemRef ItemOID="IT.DM.SITEID" Mandatory="Yes" OrderNumber="15" />
            <ItemRef ItemOID="IT.DM.DOMAIN" Mandatory="Yes" OrderNumber="2" />
            <ItemRef ItemOID="IT.DM.SEX" Mandatory="Yes" OrderNumber="21" />
            <ItemRef ItemOID="IT.DM.USUBJID" Mandatory="Yes" OrderNumber="3" />
            <ItemRef ItemOID="IT.DM.COUNTRY" Mandatory="Yes" OrderNumber="30" />
            <ItemRef ItemOID="IT.DM.SUBJID" Mandatory="Yes" OrderNumber="4" />
            <ItemRef ItemOID="IT.DM.RFICDTC" Mandatory="Yes" OrderNumber="11" />
            <ItemRef ItemOID="IT.DM.RFPENDTC" Mandatory="Yes" OrderNumber="12" />
            <ItemRef ItemOID="IT.DM.DTHDTC" Mandatory="Yes" OrderNumber="13" />
            <ItemRef ItemOID="IT.DM.DTHFL" Mandatory="Yes" OrderNumber="14" />
            <ItemRef ItemOID="IT.DM.AGE" Mandatory="Yes" OrderNumber="19" />
            <ItemRef ItemOID="IT.DM.AGEU" Mandatory="Yes" OrderNumber="20" />
            <ItemRef ItemOID="IT.DM.RACE" Mandatory="Yes" OrderNumber="22" />
            <ItemRef ItemOID="IT.DM.ARMCD" Mandatory="Yes" OrderNumber="24" />
            <ItemRef ItemOID="IT.DM.ARM" Mandatory="Yes" OrderNumber="25" />
            <ItemRef ItemOID="IT.DM.ACTARMCD" Mandatory="Yes" OrderNumber="26" />
            <ItemRef ItemOID="IT.DM.ACTARM" Mandatory="Yes" OrderNumber="27" />
            <ItemRef ItemOID="IT.DM.ARMNRS" Mandatory="Yes" OrderNumber="28" />
            <ItemRef ItemOID="IT.DM.ACTARMUD" Mandatory="Yes" OrderNumber="29" />
            <ItemRef ItemOID="IT.DM.RFSTDTC" Mandatory="Yes" OrderNumber="5" />
            <ItemRef ItemOID="IT.DM.RFENDTC" Mandatory="Yes" OrderNumber="6" />
            <ItemRef ItemOID="IT.DM.RFXSTDTC" Mandatory="Yes" OrderNumber="7" />
            <ItemRef ItemOID="IT.DM.RFXENDTC" Mandatory="Yes" OrderNumber="8" />
            <ItemRef ItemOID="IT.DM.BRTHDTC" Mandatory="No" OrderNumber="18" />
            <ItemRef ItemOID="IT.DM.DMDTC" Mandatory="No" OrderNumber="31" />
            <ItemRef ItemOID="IT.DM.ETHNIC" Mandatory="No" OrderNumber="23" />
            <def:Class Name="SPECIAL PURPOSE" />
            <def:leaf ID="LI.DM" xlink:href="dm.xpt">
               <def:title>dm.xpt</def:title>
            </def:leaf>
         </ItemGroupDef>
         <ItemGroupDef OID="8e9a5c84-16f3-4133-af69-f9b16ade95b7" Domain="DS" Name="DS" Repeating="No" IsReferenceData="No" SASDatasetName="DS" def:Structure="tbc" Purpose="Tabulation" def:StandardOID="STD.1" def:ArchiveLocationID="LI.DS">
            <Description>
               <TranslatedText xml:lang="en">Disposition</TranslatedText>
            </Description>
            <ItemRef ItemOID="IT.DS.STUDYID" Mandatory="Yes" OrderNumber="1" />
            <ItemRef ItemOID="IT.DS.DOMAIN" Mandatory="Yes" OrderNumber="2" />
            <ItemRef ItemOID="IT.DS.USUBJID" Mandatory="Yes" OrderNumber="3" />
            <ItemRef ItemOID="IT.DS.DSSEQ" Mandatory="Yes" OrderNumber="4" />
            <ItemRef ItemOID="IT.DS.DSTERM" Mandatory="Yes" OrderNumber="8" />
            <ItemRef ItemOID="IT.DS.DSDECOD" Mandatory="Yes" OrderNumber="9" />
            <ItemRef ItemOID="IT.DS.DSCAT" Mandatory="Yes" OrderNumber="10" />
            <ItemRef ItemOID="IT.DS.DSSTDTC" Mandatory="Yes" OrderNumber="14" />
            <ItemRef ItemOID="IT.DS.DSSTDY" Mandatory="Yes" OrderNumber="16" />
            <ItemRef ItemOID="IT.DS.DSDTC" Mandatory="No" OrderNumber="13" />
            <def:Class Name="EVENTS" />
            <def:leaf ID="LI.DS" xlink:href="ds.xpt">
               <def:title>ds.xpt</def:title>
            </def:leaf>
         </ItemGroupDef>
         <ItemGroupDef OID="3a8d4f14-b607-4ee4-bad7-6920f55559ae" Domain="EX" Name="EX" Repeating="No" IsReferenceData="No" SASDatasetName="EX" def:Structure="tbc" Purpose="Tabulation" def:StandardOID="STD.1" def:ArchiveLocationID="LI.EX">
            <Description>
               <TranslatedText xml:lang="en">Exposure</TranslatedText>
            </Description>
            <ItemRef ItemOID="IT.EX.STUDYID" Mandatory="Yes" OrderNumber="1" />
            <ItemRef ItemOID="IT.EX.EXTRT" Mandatory="Yes" OrderNumber="10" />
            <ItemRef ItemOID="IT.EX.DOMAIN" Mandatory="Yes" OrderNumber="2" />
            <ItemRef ItemOID="IT.EX.USUBJID" Mandatory="Yes" OrderNumber="3" />
            <ItemRef ItemOID="IT.EX.EXSEQ" Mandatory="Yes" OrderNumber="4" />
            <ItemRef ItemOID="IT.EX.EXDOSE" Mandatory="Yes" OrderNumber="13" />
            <ItemRef ItemOID="IT.EX.EXDOSU" Mandatory="Yes" OrderNumber="15" />
            <ItemRef ItemOID="IT.EX.EXDOSFRM" Mandatory="Yes" OrderNumber="16" />
            <ItemRef ItemOID="IT.EX.EXSTDTC" Mandatory="Yes" OrderNumber="28" />
            <ItemRef ItemOID="IT.EX.EXENDTC" Mandatory="Yes" OrderNumber="29" />
            <ItemRef ItemOID="IT.EX.EXDOSFRQ" Mandatory="No" OrderNumber="17" />
            <ItemRef ItemOID="IT.EX.EXROUTE" Mandatory="No" OrderNumber="19" />
            <def:Class Name="INTERVENTIONS" />
            <def:leaf ID="LI.EX" xlink:href="ex.xpt">
               <def:title>ex.xpt</def:title>
            </def:leaf>
         </ItemGroupDef>
         <ItemGroupDef OID="3bc88925-4736-4e85-9721-e5d9a6e3dfd5" Domain="LB" Name="LB" Repeating="No" IsReferenceData="No" SASDatasetName="LB" def:Structure="tbc" Purpose="Tabulation" def:StandardOID="STD.1" def:ArchiveLocationID="LI.LB">
            <Description>
               <TranslatedText xml:lang="en">Laboratory Test Results</TranslatedText>
            </Description>
            <ItemRef ItemOID="IT.LB.STUDYID" Mandatory="Yes" OrderNumber="1" />
            <ItemRef ItemOID="IT.LB.DOMAIN" Mandatory="Yes" OrderNumber="2" />
            <ItemRef ItemOID="IT.LB.USUBJID" Mandatory="Yes" OrderNumber="3" />
            <ItemRef ItemOID="IT.LB.LBSEQ" Mandatory="Yes" OrderNumber="4" />
            <ItemRef ItemOID="IT.LB.LBTESTCD" Mandatory="Yes" OrderNumber="8" />
            <ItemRef ItemOID="IT.LB.LBTEST" Mandatory="Yes" OrderNumber="9" />
            <ItemRef ItemOID="IT.LB.LBCAT" Mandatory="Yes" OrderNumber="13" />
            <ItemRef ItemOID="IT.LB.LBORRES" Mandatory="Yes" OrderNumber="15" />
            <ItemRef ItemOID="IT.LB.LBORRESU" Mandatory="Yes" OrderNumber="16" />
            <ItemRef ItemOID="IT.LB.LBORNRLO" Mandatory="Yes" OrderNumber="20" />
            <ItemRef ItemOID="IT.LB.LBORNRHI" Mandatory="Yes" OrderNumber="21" />
            <ItemRef ItemOID="IT.LB.LBSTRESC" Mandatory="Yes" OrderNumber="23" />
            <ItemRef ItemOID="IT.LB.LBSTRESN" Mandatory="Yes" OrderNumber="24" />
            <ItemRef ItemOID="IT.LB.LBSTRESU" Mandatory="Yes" OrderNumber="25" />
            <ItemRef ItemOID="IT.LB.LBSTNRLO" Mandatory="Yes" OrderNumber="26" />
            <ItemRef ItemOID="IT.LB.LBSTNRHI" Mandatory="Yes" OrderNumber="27" />
            <ItemRef ItemOID="IT.LB.LBNRIND" Mandatory="Yes" OrderNumber="29" />
            <ItemRef ItemOID="IT.LB.LBLOBXFL" Mandatory="Yes" OrderNumber="40" />
            <ItemRef ItemOID="IT.LB.VISITNUM" Mandatory="Yes" OrderNumber="47" />
            <ItemRef ItemOID="IT.LB.LBDTC" Mandatory="Yes" OrderNumber="52" />
            <ItemRef ItemOID="IT.LB.LBMETHOD" Mandatory="No" OrderNumber="37" />
            <ItemRef ItemOID="IT.LB.LBSPEC" Mandatory="No" OrderNumber="34" />
            <def:Class Name="FINDINGS" />
            <def:leaf ID="LI.LB" xlink:href="lb.xpt">
               <def:title>lb.xpt</def:title>
            </def:leaf>
         </ItemGroupDef>
         <ItemGroupDef OID="72fe0552-a1c7-4b1f-a2b7-b85c699abb0d" Domain="VS" Name="VS" Repeating="No" IsReferenceData="No" SASDatasetName="VS" def:Structure="tbc" Purpose="Tabulation" def:StandardOID="STD.1" def:ArchiveLocationID="LI.VS">
            <Description>
               <TranslatedText xml:lang="en">Vital Signs</TranslatedText>
            </Description>
            <ItemRef ItemOID="IT.VS.STUDYID" Mandatory="Yes" OrderNumber="1" />
            <ItemRef ItemOID="IT.VS.DOMAIN" Mandatory="Yes" OrderNumber="2" />
            <ItemRef ItemOID="IT.VS.USUBJID" Mandatory="Yes" OrderNumber="3" />
            <ItemRef ItemOID="IT.VS.VSSEQ" Mandatory="Yes" OrderNumber="4" />
            <ItemRef ItemOID="IT.VS.VSTESTCD" Mandatory="Yes" OrderNumber="7" />
            <ItemRef ItemOID="IT.VS.VSTEST" Mandatory="Yes" OrderNumber="8" />
            <ItemRef ItemOID="IT.VS.VSORRES" Mandatory="Yes" OrderNumber="12" />
            <ItemRef ItemOID="IT.VS.VSORRESU" Mandatory="Yes" OrderNumber="13" />
            <ItemRef ItemOID="IT.VS.VSSTRESC" Mandatory="Yes" OrderNumber="14" />
            <ItemRef ItemOID="IT.VS.VSSTRESN" Mandatory="Yes" OrderNumber="15" />
            <ItemRef ItemOID="IT.VS.VSSTRESU" Mandatory="Yes" OrderNumber="16" />
            <ItemRef ItemOID="IT.VS.VSLOBXFL" Mandatory="Yes" OrderNumber="21" />
            <ItemRef ItemOID="IT.VS.VISITNUM" Mandatory="Yes" OrderNumber="27" />
            <ItemRef ItemOID="IT.VS.VSDTC" Mandatory="Yes" OrderNumber="32" />
            <ItemRef ItemOID="IT.VS.VSLOC" Mandatory="No" OrderNumber="19" />
            <ItemRef ItemOID="IT.VS.VSPOS" Mandatory="No" OrderNumber="11" />
            <def:Class Name="FINDINGS" />
            <def:leaf ID="LI.VS" xlink:href="vs.xpt">
               <def:title>vs.xpt</def:title>
            </def:leaf>
         </ItemGroupDef>
         <!--*****************************************************************************-->
         <!--ItemDef Definitions Section (Variables and Value List, remaining properties)-->
         <!--*****************************************************************************-->
         <ItemDef OID="IT.AE.STUDYID" Name="STUDYID" DataType="text" Length="8" SASFieldName="STUDYID">
            <Description>
               <TranslatedText xml:lang="en">Study Identifier</TranslatedText>
            </Description>
            <def:Origin Type="Collected" Source="Sponsor" />
         </ItemDef>
         <ItemDef OID="IT.AE.AEDECOD" Name="AEDECOD" DataType="text" Length="8" SASFieldName="AEDECOD">
            <Description>
               <TranslatedText xml:lang="en">Dictionary-Derived Term</TranslatedText>
            </Description>
            <def:Origin Type="Collected" Source="Sponsor" />
         </ItemDef>
         <ItemDef OID="IT.AE.DOMAIN" Name="DOMAIN" DataType="text" Length="8" SASFieldName="DOMAIN">
            <Description>
               <TranslatedText xml:lang="en">Domain Abbreviation</TranslatedText>
            </Description>
            <def:Origin Type="Collected" Source="Sponsor" />
         </ItemDef>
         <ItemDef OID="IT.AE.USUBJID" Name="USUBJID" DataType="text" Length="8" SASFieldName="USUBJID">
            <Description>
               <TranslatedText xml:lang="en">Unique Subject Identifier</TranslatedText>
            </Description>
            <def:Origin Type="Collected" Source="Sponsor" />
         </ItemDef>
         <ItemDef OID="IT.AE.AESEQ" Name="AESEQ" DataType="integer" Length="8" SASFieldName="AESEQ">
            <Description>
               <TranslatedText xml:lang="en">Sequence Number</TranslatedText>
            </Description>
            <def:Origin Type="Collected" Source="Sponsor" />
         </ItemDef>
         <ItemDef OID="IT.AE.AETERM" Name="AETERM" DataType="text" Length="8" SASFieldName="AETERM">
            <Description>
               <TranslatedText xml:lang="en">Reported Term for the Adverse Event</TranslatedText>
            </Description>
            <def:Origin Type="Collected" Source="Sponsor" />
         </ItemDef>
         <ItemDef OID="IT.AE.AELLT" Name="AELLT" DataType="text" Length="8" SASFieldName="AELLT">
            <Description>
               <TranslatedText xml:lang="en">Lowest Level Term</TranslatedText>
            </Description>
            <def:Origin Type="Collected" Source="Sponsor" />
         </ItemDef>
         <ItemDef OID="IT.AE.AELLTCD" Name="AELLTCD" DataType="integer" Length="8" SASFieldName="AELLTCD">
            <Description>
               <TranslatedText xml:lang="en">Lowest Level Term Code</TranslatedText>
            </Description>
            <def:Origin Type="Collected" Source="Sponsor" />
         </ItemDef>
         <ItemDef OID="IT.AE.AEPTCD" Name="AEPTCD" DataType="integer" Length="8" SASFieldName="AEPTCD">
            <Description>
               <TranslatedText xml:lang="en">Preferred Term Code</TranslatedText>
            </Description>
            <def:Origin Type="Collected" Source="Sponsor" />
         </ItemDef>
         <ItemDef OID="IT.AE.AEHLT" Name="AEHLT" DataType="text" Length="8" SASFieldName="AEHLT">
            <Description>
               <TranslatedText xml:lang="en">High Level Term</TranslatedText>
            </Description>
            <def:Origin Type="Collected" Source="Sponsor" />
         </ItemDef>
         <ItemDef OID="IT.AE.AEHLTCD" Name="AEHLTCD" DataType="integer" Length="8" SASFieldName="AEHLTCD">
            <Description>
               <TranslatedText xml:lang="en">High Level Term Code</TranslatedText>
            </Description>
            <def:Origin Type="Collected" Source="Sponsor" />
         </ItemDef>
         <ItemDef OID="IT.AE.AEHLGT" Name="AEHLGT" DataType="text" Length="8" SASFieldName="AEHLGT">
            <Description>
               <TranslatedText xml:lang="en">High Level Group Term</TranslatedText>
            </Description>
            <def:Origin Type="Collected" Source="Sponsor" />
         </ItemDef>
         <ItemDef OID="IT.AE.AEHLGTCD" Name="AEHLGTCD" DataType="integer" Length="8" SASFieldName="AEHLGTCD">
            <Description>
               <TranslatedText xml:lang="en">High Level Group Term Code</TranslatedText>
            </Description>
            <def:Origin Type="Collected" Source="Sponsor" />
         </ItemDef>
         <ItemDef OID="IT.AE.AEBODSYS" Name="AEBODSYS" DataType="text" Length="8" SASFieldName="AEBODSYS">
            <Description>
               <TranslatedText xml:lang="en">Body System or Organ Class</TranslatedText>
            </Description>
            <def:Origin Type="Collected" Source="Sponsor" />
         </ItemDef>
         <ItemDef OID="IT.AE.AEBDSYCD" Name="AEBDSYCD" DataType="integer" Length="8" SASFieldName="AEBDSYCD">
            <Description>
               <TranslatedText xml:lang="en">Body System or Organ Class Code</TranslatedText>
            </Description>
            <def:Origin Type="Collected" Source="Sponsor" />
         </ItemDef>
         <ItemDef OID="IT.AE.AESOC" Name="AESOC" DataType="text" Length="8" SASFieldName="AESOC">
            <Description>
               <TranslatedText xml:lang="en">Primary System Organ Class</TranslatedText>
            </Description>
            <def:Origin Type="Collected" Source="Sponsor" />
         </ItemDef>
         <ItemDef OID="IT.AE.AESOCCD" Name="AESOCCD" DataType="integer" Length="8" SASFieldName="AESOCCD">
            <Description>
               <TranslatedText xml:lang="en">Primary System Organ Class Code</TranslatedText>
            </Description>
            <def:Origin Type="Collected" Source="Sponsor" />
         </ItemDef>
         <ItemDef OID="IT.AE.AESER" Name="AESER" DataType="text" Length="8" SASFieldName="AESER">
            <Description>
               <TranslatedText xml:lang="en">Serious Event</TranslatedText>
            </Description>
            <CodeListRef CodeListOID="CL.AESER" />
            <def:Origin Type="Collected" Source="Sponsor" />
         </ItemDef>
         <ItemDef OID="IT.AE.AEACN" Name="AEACN" DataType="text" Length="8" SASFieldName="AEACN">
            <Description>
               <TranslatedText xml:lang="en">Action Taken with Study Treatment</TranslatedText>
            </Description>
            <def:Origin Type="Collected" Source="Sponsor" />
         </ItemDef>
         <ItemDef OID="IT.AE.AEREL" Name="AEREL" DataType="text" Length="8" SASFieldName="AEREL">
            <Description>
               <TranslatedText xml:lang="en">Causality</TranslatedText>
            </Description>
            <def:Origin Type="Collected" Source="Sponsor" />
         </ItemDef>
         <ItemDef OID="IT.AE.AESTDTC" Name="AESTDTC" DataType="text" Length="8" SASFieldName="AESTDTC">
            <Description>
               <TranslatedText xml:lang="en">Start Date/Time of Adverse Event</TranslatedText>
            </Description>
            <def:Origin Type="Collected" Source="Sponsor" />
         </ItemDef>
         <ItemDef OID="IT.AE.AEENDTC" Name="AEENDTC" DataType="text" Length="8" SASFieldName="AEENDTC">
            <Description>
               <TranslatedText xml:lang="en">End Date/Time of Adverse Event</TranslatedText>
            </Description>
            <def:Origin Type="Collected" Source="Sponsor" />
         </ItemDef>
         <ItemDef OID="IT.AE.AEACNDEV" Name="AEACNDEV" DataType="text" Length="8" SASFieldName="AEACNDEV">
            <Description>
               <TranslatedText xml:lang="en">Action Taken with Device</TranslatedText>
            </Description>
            <def:Origin Type="Collected" Source="Sponsor" />
         </ItemDef>
         <ItemDef OID="IT.AE.AEACNOTH" Name="AEACNOTH" DataType="text" Length="8" SASFieldName="AEACNOTH">
            <Description>
               <TranslatedText xml:lang="en">Other Action Taken</TranslatedText>
            </Description>
            <def:Origin Type="Collected" Source="Sponsor" />
         </ItemDef>
         <ItemDef OID="IT.AE.AERELNST" Name="AERELNST" DataType="text" Length="8" SASFieldName="AERELNST">
            <Description>
               <TranslatedText xml:lang="en">Relationship to Non-Study Treatment</TranslatedText>
            </Description>
            <def:Origin Type="Collected" Source="Sponsor" />
         </ItemDef>
         <ItemDef OID="IT.AE.AERLDEV" Name="AERLDEV" DataType="text" Length="8" SASFieldName="AERLDEV">
            <Description>
               <TranslatedText xml:lang="en">Relationship of Event to Device</TranslatedText>
            </Description>
            <def:Origin Type="Collected" Source="Sponsor" />
         </ItemDef>
         <ItemDef OID="IT.AE.AESEV" Name="AESEV" DataType="text" Length="8" SASFieldName="AESEV">
            <Description>
               <TranslatedText xml:lang="en">Severity/Intensity</TranslatedText>
            </Description>
            <def:Origin Type="Collected" Source="Sponsor" />
         </ItemDef>
         <ItemDef OID="IT.AE.AETOXGR" Name="AETOXGR" DataType="text" Length="8" SASFieldName="AETOXGR">
            <Description>
               <TranslatedText xml:lang="en">Standard Toxicity Grade</TranslatedText>
            </Description>
            <def:Origin Type="Collected" Source="Sponsor" />
         </ItemDef>
         <ItemDef OID="IT.DM.STUDYID" Name="STUDYID" DataType="text" Length="8" SASFieldName="STUDYID">
            <Description>
               <TranslatedText xml:lang="en">Study Identifier</TranslatedText>
            </Description>
            <def:Origin Type="Collected" Source="Sponsor" />
         </ItemDef>
         <ItemDef OID="IT.DM.SITEID" Name="SITEID" DataType="text" Length="8" SASFieldName="SITEID">
            <Description>
               <TranslatedText xml:lang="en">Study Site Identifier</TranslatedText>
            </Description>
            <def:Origin Type="Collected" Source="Sponsor" />
         </ItemDef>
         <ItemDef OID="IT.DM.DOMAIN" Name="DOMAIN" DataType="text" Length="8" SASFieldName="DOMAIN">
            <Description>
               <TranslatedText xml:lang="en">Domain Abbreviation</TranslatedText>
            </Description>
            <def:Origin Type="Collected" Source="Sponsor" />
         </ItemDef>
         <ItemDef OID="IT.DM.SEX" Name="SEX" DataType="text" Length="8" SASFieldName="SEX">
            <Description>
               <TranslatedText xml:lang="en">Sex</TranslatedText>
            </Description>
            <CodeListRef CodeListOID="CL.SEX" />
            <def:Origin Type="Collected" Source="Sponsor" />
         </ItemDef>
         <ItemDef OID="IT.DM.USUBJID" Name="USUBJID" DataType="text" Length="8" SASFieldName="USUBJID">
            <Description>
               <TranslatedText xml:lang="en">Unique Subject Identifier</TranslatedText>
            </Description>
            <def:Origin Type="Collected" Source="Sponsor" />
         </ItemDef>
         <ItemDef OID="IT.DM.COUNTRY" Name="COUNTRY" DataType="text" Length="8" SASFieldName="COUNTRY">
            <Description>
               <TranslatedText xml:lang="en">Country</TranslatedText>
            </Description>
            <def:Origin Type="Collected" Source="Sponsor" />
         </ItemDef>
         <ItemDef OID="IT.DM.SUBJID" Name="SUBJID" DataType="text" Length="8" SASFieldName="SUBJID">
            <Description>
               <TranslatedText xml:lang="en">Subject Identifier for the Study</TranslatedText>
            </Description>
            <def:Origin Type="Collected" Source="Sponsor" />
         </ItemDef>
         <ItemDef OID="IT.DM.RFICDTC" Name="RFICDTC" DataType="text" Length="8" SASFieldName="RFICDTC">
            <Description>
               <TranslatedText xml:lang="en">Date/Time of Informed Consent</TranslatedText>
            </Description>
            <def:Origin Type="Collected" Source="Sponsor" />
         </ItemDef>
         <ItemDef OID="IT.DM.RFPENDTC" Name="RFPENDTC" DataType="text" Length="8" SASFieldName="RFPENDTC">
            <Description>
               <TranslatedText xml:lang="en">Date/Time of End of Participation</TranslatedText>
            </Description>
            <def:Origin Type="Collected" Source="Sponsor" />
         </ItemDef>
         <ItemDef OID="IT.DM.DTHDTC" Name="DTHDTC" DataType="text" Length="8" SASFieldName="DTHDTC">
            <Description>
               <TranslatedText xml:lang="en">Date/Time of Death</TranslatedText>
            </Description>
            <def:Origin Type="Collected" Source="Sponsor" />
         </ItemDef>
         <ItemDef OID="IT.DM.DTHFL" Name="DTHFL" DataType="text" Length="8" SASFieldName="DTHFL">
            <Description>
               <TranslatedText xml:lang="en">Subject Death Flag</TranslatedText>
            </Description>
            <def:Origin Type="Collected" Source="Sponsor" />
         </ItemDef>
         <ItemDef OID="IT.DM.AGE" Name="AGE" DataType="integer" Length="8" SASFieldName="AGE">
            <Description>
               <TranslatedText xml:lang="en">Age</TranslatedText>
            </Description>
            <def:Origin Type="Collected" Source="Sponsor" />
         </ItemDef>
         <ItemDef OID="IT.DM.AGEU" Name="AGEU" DataType="text" Length="8" SASFieldName="AGEU">
            <Description>
               <TranslatedText xml:lang="en">Age Units</TranslatedText>
            </Description>
            <def:Origin Type="Collected" Source="Sponsor" />
         </ItemDef>
         <ItemDef OID="IT.DM.RACE" Name="RACE" DataType="text" Length="8" SASFieldName="RACE">
            <Description>
               <TranslatedText xml:lang="en">Race</TranslatedText>
            </Description>
            <CodeListRef CodeListOID="CL.RACE" />
            <def:Origin Type="Collected" Source="Sponsor" />
         </ItemDef>
         <ItemDef OID="IT.DM.ARMCD" Name="ARMCD" DataType="text" Length="8" SASFieldName="ARMCD">
            <Description>
               <TranslatedText xml:lang="en">Planned Arm Code</TranslatedText>
            </Description>
            <def:Origin Type="Collected" Source="Sponsor" />
         </ItemDef>
         <ItemDef OID="IT.DM.ARM" Name="ARM" DataType="text" Length="8" SASFieldName="ARM">
            <Description>
               <TranslatedText xml:lang="en">Description of Planned Arm</TranslatedText>
            </Description>
            <def:Origin Type="Collected" Source="Sponsor" />
         </ItemDef>
         <ItemDef OID="IT.DM.ACTARMCD" Name="ACTARMCD" DataType="text" Length="8" SASFieldName="ACTARMCD">
            <Description>
               <TranslatedText xml:lang="en">Actual Arm Code</TranslatedText>
            </Description>
            <def:Origin Type="Collected" Source="Sponsor" />
         </ItemDef>
         <ItemDef OID="IT.DM.ACTARM" Name="ACTARM" DataType="text" Length="8" SASFieldName="ACTARM">
            <Description>
               <TranslatedText xml:lang="en">Description of Actual Arm</TranslatedText>
            </Description>
            <def:Origin Type="Collected" Source="Sponsor" />
         </ItemDef>
         <ItemDef OID="IT.DM.ARMNRS" Name="ARMNRS" DataType="text" Length="8" SASFieldName="ARMNRS">
            <Description>
               <TranslatedText xml:lang="en">Reason Arm and/or Actual Arm is Null</TranslatedText>
            </Description>
            <def:Origin Type="Collected" Source="Sponsor" />
         </ItemDef>
         <ItemDef OID="IT.DM.ACTARMUD" Name="ACTARMUD" DataType="text" Length="8" SASFieldName="ACTARMUD">
            <Description>
               <TranslatedText xml:lang="en">Description of Unplanned Actual Arm</TranslatedText>
            </Description>
            <def:Origin Type="Collected" Source="Sponsor" />
         </ItemDef>
         <ItemDef OID="IT.DM.RFSTDTC" Name="RFSTDTC" DataType="text" Length="8" SASFieldName="RFSTDTC">
            <Description>
               <TranslatedText xml:lang="en">Subject Reference Start Date/Time</TranslatedText>
            </Description>
            <def:Origin Type="Collected" Source="Sponsor" />
         </ItemDef>
         <ItemDef OID="IT.DM.RFENDTC" Name="RFENDTC" DataType="text" Length="8" SASFieldName="RFENDTC">
            <Description>
               <TranslatedText xml:lang="en">Subject Reference End Date/Time</TranslatedText>
            </Description>
            <def:Origin Type="Collected" Source="Sponsor" />
         </ItemDef>
         <ItemDef OID="IT.DM.RFXSTDTC" Name="RFXSTDTC" DataType="text" Length="8" SASFieldName="RFXSTDTC">
            <Description>
               <TranslatedText xml:lang="en">Date/Time of First Study Treatment</TranslatedText>
            </Description>
            <def:Origin Type="Collected" Source="Sponsor" />
         </ItemDef>
         <ItemDef OID="IT.DM.RFXENDTC" Name="RFXENDTC" DataType="text" Length="8" SASFieldName="RFXENDTC">
            <Description>
               <TranslatedText xml:lang="en">Date/Time of Last Study Treatment</TranslatedText>
            </Description>
            <def:Origin Type="Collected" Source="Sponsor" />
         </ItemDef>
         <ItemDef OID="IT.DM.BRTHDTC" Name="BRTHDTC" DataType="text" Length="8" SASFieldName="BRTHDTC">
            <Description>
               <TranslatedText xml:lang="en">Date/Time of Birth</TranslatedText>
            </Description>
            <def:Origin Type="Collected" Source="Sponsor" />
         </ItemDef>
         <ItemDef OID="IT.DM.DMDTC" Name="DMDTC" DataType="text" Length="8" SASFieldName="DMDTC">
            <Description>
               <TranslatedText xml:lang="en">Date/Time of Collection</TranslatedText>
            </Description>
            <def:Origin Type="Collected" Source="Sponsor" />
         </ItemDef>
         <ItemDef OID="IT.DM.ETHNIC" Name="ETHNIC" DataType="text" Length="8" SASFieldName="ETHNIC">
            <Description>
               <TranslatedText xml:lang="en">Ethnicity</TranslatedText>
            </Description>
            <CodeListRef CodeListOID="CL.ETHNIC" />
            <def:Origin Type="Collected" Source="Sponsor" />
         </ItemDef>
         <ItemDef OID="IT.DS.STUDYID" Name="STUDYID" DataType="text" Length="8" SASFieldName="STUDYID">
            <Description>
               <TranslatedText xml:lang="en">Study Identifier</TranslatedText>
            </Description>
            <def:Origin Type="Collected" Source="Sponsor" />
         </ItemDef>
         <ItemDef OID="IT.DS.DOMAIN" Name="DOMAIN" DataType="text" Length="8" SASFieldName="DOMAIN">
            <Description>
               <TranslatedText xml:lang="en">Domain Abbreviation</TranslatedText>
            </Description>
            <def:Origin Type="Collected" Source="Sponsor" />
         </ItemDef>
         <ItemDef OID="IT.DS.USUBJID" Name="USUBJID" DataType="text" Length="8" SASFieldName="USUBJID">
            <Description>
               <TranslatedText xml:lang="en">Unique Subject Identifier</TranslatedText>
            </Description>
            <def:Origin Type="Collected" Source="Sponsor" />
         </ItemDef>
         <ItemDef OID="IT.DS.DSSEQ" Name="DSSEQ" DataType="integer" Length="8" SASFieldName="DSSEQ">
            <Description>
               <TranslatedText xml:lang="en">Sequence Number</TranslatedText>
            </Description>
            <def:Origin Type="Collected" Source="Sponsor" />
         </ItemDef>
         <ItemDef OID="IT.DS.DSTERM" Name="DSTERM" DataType="text" Length="8" SASFieldName="DSTERM">
            <Description>
               <TranslatedText xml:lang="en">Reported Term for the Disposition Event</TranslatedText>
            </Description>
            <def:Origin Type="Collected" Source="Sponsor" />
         </ItemDef>
         <ItemDef OID="IT.DS.DSDECOD" Name="DSDECOD" DataType="text" Length="8" SASFieldName="DSDECOD">
            <Description>
               <TranslatedText xml:lang="en">Standardized Disposition Term</TranslatedText>
            </Description>
            <def:Origin Type="Collected" Source="Sponsor" />
         </ItemDef>
         <ItemDef OID="IT.DS.DSCAT" Name="DSCAT" DataType="text" Length="8" SASFieldName="DSCAT">
            <Description>
               <TranslatedText xml:lang="en">Category for Disposition Event</TranslatedText>
            </Description>
            <def:Origin Type="Collected" Source="Sponsor" />
         </ItemDef>
         <ItemDef OID="IT.DS.DSSTDTC" Name="DSSTDTC" DataType="text" Length="8" SASFieldName="DSSTDTC">
            <Description>
               <TranslatedText xml:lang="en">Start Date/Time of Disposition Event</TranslatedText>
            </Description>
            <def:Origin Type="Collected" Source="Sponsor" />
         </ItemDef>
         <ItemDef OID="IT.DS.DSSTDY" Name="DSSTDY" DataType="integer" Length="8" SASFieldName="DSSTDY">
            <Description>
               <TranslatedText xml:lang="en">Study Day of Start of Disposition Event</TranslatedText>
            </Description>
            <def:Origin Type="Collected" Source="Sponsor" />
         </ItemDef>
         <ItemDef OID="IT.DS.DSDTC" Name="DSDTC" DataType="text" Length="8" SASFieldName="DSDTC">
            <Description>
               <TranslatedText xml:lang="en">Date/Time of Collection</TranslatedText>
            </Description>
            <def:Origin Type="Collected" Source="Sponsor" />
         </ItemDef>
         <ItemDef OID="IT.EX.STUDYID" Name="STUDYID" DataType="text" Length="8" SASFieldName="STUDYID">
            <Description>
               <TranslatedText xml:lang="en">Study Identifier</TranslatedText>
            </Description>
            <def:Origin Type="Collected" Source="Sponsor" />
         </ItemDef>
         <ItemDef OID="IT.EX.EXTRT" Name="EXTRT" DataType="text" Length="8" SASFieldName="EXTRT">
            <Description>
               <TranslatedText xml:lang="en">Name of Treatment</TranslatedText>
            </Description>
            <def:Origin Type="Collected" Source="Sponsor" />
         </ItemDef>
         <ItemDef OID="IT.EX.DOMAIN" Name="DOMAIN" DataType="text" Length="8" SASFieldName="DOMAIN">
            <Description>
               <TranslatedText xml:lang="en">Domain Abbreviation</TranslatedText>
            </Description>
            <def:Origin Type="Collected" Source="Sponsor" />
         </ItemDef>
         <ItemDef OID="IT.EX.USUBJID" Name="USUBJID" DataType="text" Length="8" SASFieldName="USUBJID">
            <Description>
               <TranslatedText xml:lang="en">Unique Subject Identifier</TranslatedText>
            </Description>
            <def:Origin Type="Collected" Source="Sponsor" />
         </ItemDef>
         <ItemDef OID="IT.EX.EXSEQ" Name="EXSEQ" DataType="integer" Length="8" SASFieldName="EXSEQ">
            <Description>
               <TranslatedText xml:lang="en">Sequence Number</TranslatedText>
            </Description>
            <def:Origin Type="Collected" Source="Sponsor" />
         </ItemDef>
         <ItemDef OID="IT.EX.EXDOSE" Name="EXDOSE" DataType="integer" Length="8" SASFieldName="EXDOSE">
            <Description>
               <TranslatedText xml:lang="en">Dose</TranslatedText>
            </Description>
            <def:Origin Type="Collected" Source="Sponsor" />
         </ItemDef>
         <ItemDef OID="IT.EX.EXDOSU" Name="EXDOSU" DataType="text" Length="8" SASFieldName="EXDOSU">
            <Description>
               <TranslatedText xml:lang="en">Dose Units</TranslatedText>
            </Description>
            <def:Origin Type="Collected" Source="Sponsor" />
         </ItemDef>
         <ItemDef OID="IT.EX.EXDOSFRM" Name="EXDOSFRM" DataType="text" Length="8" SASFieldName="EXDOSFRM">
            <Description>
               <TranslatedText xml:lang="en">Dose Form</TranslatedText>
            </Description>
            <def:Origin Type="Collected" Source="Sponsor" />
         </ItemDef>
         <ItemDef OID="IT.EX.EXSTDTC" Name="EXSTDTC" DataType="text" Length="8" SASFieldName="EXSTDTC">
            <Description>
               <TranslatedText xml:lang="en">Start Date/Time of Treatment</TranslatedText>
            </Description>
            <def:Origin Type="Collected" Source="Sponsor" />
         </ItemDef>
         <ItemDef OID="IT.EX.EXENDTC" Name="EXENDTC" DataType="text" Length="8" SASFieldName="EXENDTC">
            <Description>
               <TranslatedText xml:lang="en">End Date/Time of Treatment</TranslatedText>
            </Description>
            <def:Origin Type="Collected" Source="Sponsor" />
         </ItemDef>
         <ItemDef OID="IT.EX.EXDOSFRQ" Name="EXDOSFRQ" DataType="text" Length="8" SASFieldName="EXDOSFRQ">
            <Description>
               <TranslatedText xml:lang="en">Dosing Frequency per Interval</TranslatedText>
            </Description>
            <def:Origin Type="Collected" Source="Sponsor" />
         </ItemDef>
         <ItemDef OID="IT.EX.EXROUTE" Name="EXROUTE" DataType="text" Length="8" SASFieldName="EXROUTE">
            <Description>
               <TranslatedText xml:lang="en">Route of Administration</TranslatedText>
            </Description>
            <def:Origin Type="Collected" Source="Sponsor" />
         </ItemDef>
         <ItemDef OID="IT.LB.STUDYID" Name="STUDYID" DataType="text" Length="8" SASFieldName="STUDYID">
            <Description>
               <TranslatedText xml:lang="en">Study Identifier</TranslatedText>
            </Description>
            <def:Origin Type="Collected" Source="Sponsor" />
         </ItemDef>
         <ItemDef OID="IT.LB.DOMAIN" Name="DOMAIN" DataType="text" Length="8" SASFieldName="DOMAIN">
            <Description>
               <TranslatedText xml:lang="en">Domain Abbreviation</TranslatedText>
            </Description>
            <def:Origin Type="Collected" Source="Sponsor" />
         </ItemDef>
         <ItemDef OID="IT.LB.USUBJID" Name="USUBJID" DataType="text" Length="8" SASFieldName="USUBJID">
            <Description>
               <TranslatedText xml:lang="en">Unique Subject Identifier</TranslatedText>
            </Description>
            <def:Origin Type="Collected" Source="Sponsor" />
         </ItemDef>
         <ItemDef OID="IT.LB.LBSEQ" Name="LBSEQ" DataType="integer" Length="8" SASFieldName="LBSEQ">
            <Description>
               <TranslatedText xml:lang="en">Sequence Number</TranslatedText>
            </Description>
            <def:Origin Type="Collected" Source="Sponsor" />
         </ItemDef>
         <ItemDef OID="IT.LB.LBTESTCD" Name="LBTESTCD" DataType="text" Length="8" SASFieldName="LBTESTCD">
            <Description>
               <TranslatedText xml:lang="en">Lab Test or Examination Short Name</TranslatedText>
            </Description>
            <def:Origin Type="Collected" Source="Sponsor" />
         </ItemDef>
         <ItemDef OID="IT.LB.LBTEST" Name="LBTEST" DataType="text" Length="8" SASFieldName="LBTEST">
            <Description>
               <TranslatedText xml:lang="en">Lab Test or Examination Name</TranslatedText>
            </Description>
            <def:Origin Type="Collected" Source="Sponsor" />
         </ItemDef>
         <ItemDef OID="IT.LB.LBCAT" Name="LBCAT" DataType="text" Length="8" SASFieldName="LBCAT">
            <Description>
               <TranslatedText xml:lang="en">Category for Lab Test</TranslatedText>
            </Description>
            <def:Origin Type="Collected" Source="Sponsor" />
         </ItemDef>
         <ItemDef OID="IT.LB.LBORRES" Name="LBORRES" DataType="text" Length="8" SASFieldName="LBORRES">
            <Description>
               <TranslatedText xml:lang="en">Result or Finding in Original Units</TranslatedText>
            </Description>
            <def:Origin Type="Collected" Source="Sponsor" />
         </ItemDef>
         <ItemDef OID="IT.LB.LBORRESU" Name="LBORRESU" DataType="text" Length="8" SASFieldName="LBORRESU">
            <Description>
               <TranslatedText xml:lang="en">Original Units</TranslatedText>
            </Description>
            <def:ValueListRef ValueListOID="VL.LB.LBORRESU" />
            <def:Origin Type="Collected" Source="Sponsor" />
         </ItemDef>
         <ItemDef OID="IT.LB.LBORNRLO" Name="LBORNRLO" DataType="text" Length="8" SASFieldName="LBORNRLO">
            <Description>
               <TranslatedText xml:lang="en">Reference Range Lower Limit in Orig Unit</TranslatedText>
            </Description>
            <def:Origin Type="Collected" Source="Sponsor" />
         </ItemDef>
         <ItemDef OID="IT.LB.LBORNRHI" Name="LBORNRHI" DataType="text" Length="8" SASFieldName="LBORNRHI">
            <Description>
               <TranslatedText xml:lang="en">Reference Range Upper Limit in Orig Unit</TranslatedText>
            </Description>
            <def:Origin Type="Collected" Source="Sponsor" />
         </ItemDef>
         <ItemDef OID="IT.LB.LBSTRESC" Name="LBSTRESC" DataType="text" Length="8" SASFieldName="LBSTRESC">
            <Description>
               <TranslatedText xml:lang="en">Character Result/Finding in Std Format</TranslatedText>
            </Description>
            <def:Origin Type="Collected" Source="Sponsor" />
         </ItemDef>
         <ItemDef OID="IT.LB.LBSTRESN" Name="LBSTRESN" DataType="integer" Length="8" SASFieldName="LBSTRESN">
            <Description>
               <TranslatedText xml:lang="en">Numeric Result/Finding in Standard Units</TranslatedText>
            </Description>
            <def:Origin Type="Collected" Source="Sponsor" />
         </ItemDef>
         <ItemDef OID="IT.LB.LBSTRESU" Name="LBSTRESU" DataType="text" Length="8" SASFieldName="LBSTRESU">
            <Description>
               <TranslatedText xml:lang="en">Standard Units</TranslatedText>
            </Description>
            <def:Origin Type="Collected" Source="Sponsor" />
         </ItemDef>
         <ItemDef OID="IT.LB.LBSTNRLO" Name="LBSTNRLO" DataType="integer" Length="8" SASFieldName="LBSTNRLO">
            <Description>
               <TranslatedText xml:lang="en">Reference Range Lower Limit-Std Units</TranslatedText>
            </Description>
            <def:Origin Type="Collected" Source="Sponsor" />
         </ItemDef>
         <ItemDef OID="IT.LB.LBSTNRHI" Name="LBSTNRHI" DataType="integer" Length="8" SASFieldName="LBSTNRHI">
            <Description>
               <TranslatedText xml:lang="en">Reference Range Upper Limit-Std Units</TranslatedText>
            </Description>
            <def:Origin Type="Collected" Source="Sponsor" />
         </ItemDef>
         <ItemDef OID="IT.LB.LBNRIND" Name="LBNRIND" DataType="text" Length="8" SASFieldName="LBNRIND">
            <Description>
               <TranslatedText xml:lang="en">Reference Range Indicator</TranslatedText>
            </Description>
            <def:Origin Type="Collected" Source="Sponsor" />
         </ItemDef>
         <ItemDef OID="IT.LB.LBLOBXFL" Name="LBLOBXFL" DataType="text" Length="8" SASFieldName="LBLOBXFL">
            <Description>
               <TranslatedText xml:lang="en">Last Observation Before Exposure Flag</TranslatedText>
            </Description>
            <def:Origin Type="Collected" Source="Sponsor" />
         </ItemDef>
         <ItemDef OID="IT.LB.VISITNUM" Name="VISITNUM" DataType="integer" Length="8" SASFieldName="VISITNUM">
            <Description>
               <TranslatedText xml:lang="en">Visit Number</TranslatedText>
            </Description>
            <def:Origin Type="Collected" Source="Sponsor" />
         </ItemDef>
         <ItemDef OID="IT.LB.LBDTC" Name="LBDTC" DataType="text" Length="8" SASFieldName="LBDTC">
            <Description>
               <TranslatedText xml:lang="en">Date/Time of Specimen Collection</TranslatedText>
            </Description>
            <def:Origin Type="Collected" Source="Sponsor" />
         </ItemDef>
         <ItemDef OID="IT.LB.LBMETHOD" Name="LBMETHOD" DataType="text" Length="8" SASFieldName="LBMETHOD">
            <Description>
               <TranslatedText xml:lang="en">Method of Test or Examination</TranslatedText>
            </Description>
            <def:Origin Type="Collected" Source="Sponsor" />
         </ItemDef>
         <ItemDef OID="IT.LB.LBSPEC" Name="LBSPEC" DataType="text" Length="8" SASFieldName="LBSPEC">
            <Description>
               <TranslatedText xml:lang="en">Specimen Type</TranslatedText>
            </Description>
            <def:Origin Type="Collected" Source="Sponsor" />
         </ItemDef>
         <ItemDef OID="IT.VS.STUDYID" Name="STUDYID" DataType="text" Length="8" SASFieldName="STUDYID">
            <Description>
               <TranslatedText xml:lang="en">Study Identifier</TranslatedText>
            </Description>
            <def:Origin Type="Collected" Source="Sponsor" />
         </ItemDef>
         <ItemDef OID="IT.VS.DOMAIN" Name="DOMAIN" DataType="text" Length="8" SASFieldName="DOMAIN">
            <Description>
               <TranslatedText xml:lang="en">Domain Abbreviation</TranslatedText>
            </Description>
            <def:Origin Type="Collected" Source="Sponsor" />
         </ItemDef>
         <ItemDef OID="IT.VS.USUBJID" Name="USUBJID" DataType="text" Length="8" SASFieldName="USUBJID">
            <Description>
               <TranslatedText xml:lang="en">Unique Subject Identifier</TranslatedText>
            </Description>
            <def:Origin Type="Collected" Source="Sponsor" />
         </ItemDef>
         <ItemDef OID="IT.VS.VSSEQ" Name="VSSEQ" DataType="integer" Length="8" SASFieldName="VSSEQ">
            <Description>
               <TranslatedText xml:lang="en">Sequence Number</TranslatedText>
            </Description>
            <def:Origin Type="Collected" Source="Sponsor" />
         </ItemDef>
         <ItemDef OID="IT.VS.VSTESTCD" Name="VSTESTCD" DataType="text" Length="8" SASFieldName="VSTESTCD">
            <Description>
               <TranslatedText xml:lang="en">Vital Signs Test Short Name</TranslatedText>
            </Description>
            <def:Origin Type="Collected" Source="Sponsor" />
         </ItemDef>
         <ItemDef OID="IT.VS.VSTEST" Name="VSTEST" DataType="text" Length="8" SASFieldName="VSTEST">
            <Description>
               <TranslatedText xml:lang="en">Vital Signs Test Name</TranslatedText>
            </Description>
            <def:Origin Type="Collected" Source="Sponsor" />
         </ItemDef>
         <ItemDef OID="IT.VS.VSORRES" Name="VSORRES" DataType="text" Length="8" SASFieldName="VSORRES">
            <Description>
               <TranslatedText xml:lang="en">Result or Finding in Original Units</TranslatedText>
            </Description>
            <def:Origin Type="Collected" Source="Sponsor" />
         </ItemDef>
         <ItemDef OID="IT.VS.VSORRESU" Name="VSORRESU" DataType="text" Length="8" SASFieldName="VSORRESU">
            <Description>
               <TranslatedText xml:lang="en">Original Units</TranslatedText>
            </Description>
            <def:ValueListRef ValueListOID="VL.VS.VSORRESU" />
            <def:Origin Type="Collected" Source="Sponsor" />
         </ItemDef>
         <ItemDef OID="IT.VS.VSSTRESC" Name="VSSTRESC" DataType="text" Length="8" SASFieldName="VSSTRESC">
            <Description>
               <TranslatedText xml:lang="en">Character Result/Finding in Std Format</TranslatedText>
            </Description>
            <def:Origin Type="Collected" Source="Sponsor" />
         </ItemDef>
         <ItemDef OID="IT.VS.VSSTRESN" Name="VSSTRESN" DataType="integer" Length="8" SASFieldName="VSSTRESN">
            <Description>
               <TranslatedText xml:lang="en">Numeric Result/Finding in Standard Units</TranslatedText>
            </Description>
            <def:Origin Type="Collected" Source="Sponsor" />
         </ItemDef>
         <ItemDef OID="IT.VS.VSSTRESU" Name="VSSTRESU" DataType="text" Length="8" SASFieldName="VSSTRESU">
            <Description>
               <TranslatedText xml:lang="en">Standard Units</TranslatedText>
            </Description>
            <def:Origin Type="Collected" Source="Sponsor" />
         </ItemDef>
         <ItemDef OID="IT.VS.VSLOBXFL" Name="VSLOBXFL" DataType="text" Length="8" SASFieldName="VSLOBXFL">
            <Description>
               <TranslatedText xml:lang="en">Last Observation Before Exposure Flag</TranslatedText>
            </Description>
            <def:Origin Type="Collected" Source="Sponsor" />
         </ItemDef>
         <ItemDef OID="IT.VS.VISITNUM" Name="VISITNUM" DataType="integer" Length="8" SASFieldName="VISITNUM">
            <Description>
               <TranslatedText xml:lang="en">Visit Number</TranslatedText>
            </Description>
            <def:Origin Type="Collected" Source="Sponsor" />
         </ItemDef>
         <ItemDef OID="IT.VS.VSDTC" Name="VSDTC" DataType="text" Length="8" SASFieldName="VSDTC">
            <Description>
               <TranslatedText xml:lang="en">Date/Time of Measurements</TranslatedText>
            </Description>
            <def:Origin Type="Collected" Source="Sponsor" />
         </ItemDef>
         <ItemDef OID="IT.VS.VSLOC" Name="VSLOC" DataType="text" Length="8" SASFieldName="VSLOC">
            <Description>
               <TranslatedText xml:lang="en">Location of Vital Signs Measurement</TranslatedText>
            </Description>
            <def:ValueListRef ValueListOID="VL.VS.VSLOC" />
            <def:Origin Type="Collected" Source="Sponsor" />
         </ItemDef>
         <ItemDef OID="IT.VS.VSPOS" Name="VSPOS" DataType="text" Length="8" SASFieldName="VSPOS">
            <Description>
               <TranslatedText xml:lang="en">Vital Signs Position of Subject</TranslatedText>
            </Description>
            <def:ValueListRef ValueListOID="VL.VS.VSPOS" />
            <def:Origin Type="Collected" Source="Sponsor" />
         </ItemDef>
         <ItemDef OID="IDVO.LB.LBORRESU.ALT" Name="LBORRESU ALT" DataType="float" Length="8" SASFieldName="LBORRESU">
            <Description>
               <TranslatedText xml:lang="en">Original Units</TranslatedText>
            </Description>
            <CodeListRef CodeListOID="CL.LB.LBORRESU.ALT" />
            <def:Origin Type="Collected" Source="Sponsor" />
         </ItemDef>
         <ItemDef OID="IDVO.LB.LBORRESU.ALP" Name="LBORRESU ALP" DataType="float" Length="8" SASFieldName="LBORRESU">
            <Description>
               <TranslatedText xml:lang="en">Original Units</TranslatedText>
            </Description>
            <CodeListRef CodeListOID="CL.LB.LBORRESU.ALP" />
            <def:Origin Type="Collected" Source="Sponsor" />
         </ItemDef>
         <ItemDef OID="IDVO.LB.LBORRESU.AST" Name="LBORRESU AST" DataType="float" Length="8" SASFieldName="LBORRESU">
            <Description>
               <TranslatedText xml:lang="en">Original Units</TranslatedText>
            </Description>
            <CodeListRef CodeListOID="CL.LB.LBORRESU.AST" />
            <def:Origin Type="Collected" Source="Sponsor" />
         </ItemDef>
         <ItemDef OID="IDVO.LB.LBORRESU.CREAT" Name="LBORRESU CREAT" DataType="float" Length="8" SASFieldName="LBORRESU">
            <Description>
               <TranslatedText xml:lang="en">Original Units</TranslatedText>
            </Description>
            <CodeListRef CodeListOID="CL.LB.LBORRESU.CREAT" />
            <def:Origin Type="Collected" Source="Sponsor" />
         </ItemDef>
         <ItemDef OID="IDVO.LB.LBORRESU.HBA1C" Name="LBORRESU HBA1C" DataType="float" Length="8" SASFieldName="LBORRESU">
            <Description>
               <TranslatedText xml:lang="en">Original Units</TranslatedText>
            </Description>
            <CodeListRef CodeListOID="CL.LB.LBORRESU.HBA1C" />
            <def:Origin Type="Collected" Source="Sponsor" />
         </ItemDef>
         <ItemDef OID="IDVO.LB.LBORRESU.K" Name="LBORRESU K" DataType="float" Length="8" SASFieldName="LBORRESU">
            <Description>
               <TranslatedText xml:lang="en">Original Units</TranslatedText>
            </Description>
            <CodeListRef CodeListOID="CL.LB.LBORRESU.K" />
            <def:Origin Type="Collected" Source="Sponsor" />
         </ItemDef>
         <ItemDef OID="IDVO.LB.LBORRESU.SODIUM" Name="LBORRESU SODIUM" DataType="float" Length="8" SASFieldName="LBORRESU">
            <Description>
               <TranslatedText xml:lang="en">Original Units</TranslatedText>
            </Description>
            <CodeListRef CodeListOID="CL.LB.LBORRESU.SODIUM" />
            <def:Origin Type="Collected" Source="Sponsor" />
         </ItemDef>
         <ItemDef OID="IDVO.VS.VSLOC.DIABP" Name="VSLOC DIABP" DataType="string" Length="8" SASFieldName="VSLOC">
            <Description>
               <TranslatedText xml:lang="en">Location of Vital Signs Measurement</TranslatedText>
            </Description>
            <CodeListRef CodeListOID="CL.VS.VSLOC.DIABP" />
            <def:Origin Type="Collected" Source="Sponsor" />
         </ItemDef>
         <ItemDef OID="IDVO.VS.VSPOS.DIABP" Name="VSPOS DIABP" DataType="string" Length="8" SASFieldName="VSPOS">
            <Description>
               <TranslatedText xml:lang="en">Vital Signs Position of Subject</TranslatedText>
            </Description>
            <CodeListRef CodeListOID="CL.VS.VSPOS.DIABP" />
            <def:Origin Type="Collected" Source="Sponsor" />
         </ItemDef>
         <ItemDef OID="IDVO.VS.VSLOC.HR" Name="VSLOC HR" DataType="string" Length="8" SASFieldName="VSLOC">
            <Description>
               <TranslatedText xml:lang="en">Location of Vital Signs Measurement</TranslatedText>
            </Description>
            <CodeListRef CodeListOID="CL.VS.VSLOC.HR" />
            <def:Origin Type="Collected" Source="Sponsor" />
         </ItemDef>
         <ItemDef OID="IDVO.VS.VSPOS.HR" Name="VSPOS HR" DataType="string" Length="8" SASFieldName="VSPOS">
            <Description>
               <TranslatedText xml:lang="en">Vital Signs Position of Subject</TranslatedText>
            </Description>
            <CodeListRef CodeListOID="CL.VS.VSPOS.HR" />
            <def:Origin Type="Collected" Source="Sponsor" />
         </ItemDef>
         <ItemDef OID="IDVO.VS.VSORRESU.HEIGHT" Name="VSORRESU HEIGHT" DataType="float" Length="8" SASFieldName="VSORRESU">
            <Description>
               <TranslatedText xml:lang="en">Original Units</TranslatedText>
            </Description>
            <CodeListRef CodeListOID="CL.VS.VSORRESU.HEIGHT" />
            <def:Origin Type="Collected" Source="Sponsor" />
         </ItemDef>
         <ItemDef OID="IDVO.VS.VSLOC.SYSBP" Name="VSLOC SYSBP" DataType="string" Length="8" SASFieldName="VSLOC">
            <Description>
               <TranslatedText xml:lang="en">Location of Vital Signs Measurement</TranslatedText>
            </Description>
            <CodeListRef CodeListOID="CL.VS.VSLOC.SYSBP" />
            <def:Origin Type="Collected" Source="Sponsor" />
         </ItemDef>
         <ItemDef OID="IDVO.VS.VSPOS.SYSBP" Name="VSPOS SYSBP" DataType="string" Length="8" SASFieldName="VSPOS">
            <Description>
               <TranslatedText xml:lang="en">Vital Signs Position of Subject</TranslatedText>
            </Description>
            <CodeListRef CodeListOID="CL.VS.VSPOS.SYSBP" />
            <def:Origin Type="Collected" Source="Sponsor" />
         </ItemDef>
         <ItemDef OID="IDVO.VS.VSLOC.TEMP" Name="VSLOC TEMP" DataType="string" Length="8" SASFieldName="VSLOC">
            <Description>
               <TranslatedText xml:lang="en">Location of Vital Signs Measurement</TranslatedText>
            </Description>
            <CodeListRef CodeListOID="CL.VS.VSLOC.TEMP" />
            <def:Origin Type="Collected" Source="Sponsor" />
         </ItemDef>
         <ItemDef OID="IDVO.VS.VSORRESU.TEMP" Name="VSORRESU TEMP" DataType="float" Length="8" SASFieldName="VSORRESU">
            <Description>
               <TranslatedText xml:lang="en">Original Units</TranslatedText>
            </Description>
            <CodeListRef CodeListOID="CL.VS.VSORRESU.TEMP" />
            <def:Origin Type="Collected" Source="Sponsor" />
         </ItemDef>
         <ItemDef OID="IDVO.VS.VSORRESU.WEIGHT" Name="VSORRESU WEIGHT" DataType="float" Length="8" SASFieldName="VSORRESU">
            <Description>
               <TranslatedText xml:lang="en">Original Units</TranslatedText>
            </Description>
            <CodeListRef CodeListOID="CL.VS.VSORRESU.WEIGHT" />
            <def:Origin Type="Collected" Source="Sponsor" />
         </ItemDef>
         <!--************************************-->
         <!--Code List Definitions Section-->
         <!--************************************-->
         <CodeList OID="CL.AESER" Name="CL AESER" def:StandardOID="STD.2" DataType="text">
            <CodeListItem CodedValue="N">
               <Decode>
                  <TranslatedText xml:lang="en">No</TranslatedText>
               </Decode>
               <Alias Context="nci:ExtCodeID" Name="C49487" />
            </CodeListItem>
            <CodeListItem CodedValue="Y">
               <Decode>
                  <TranslatedText xml:lang="en">Yes</TranslatedText>
               </Decode>
               <Alias Context="nci:ExtCodeID" Name="C49488" />
            </CodeListItem>
         </CodeList>
         <CodeList OID="CL.SEX" Name="CL SEX" def:StandardOID="STD.2" DataType="text">
            <CodeListItem CodedValue="M">
               <Decode>
                  <TranslatedText xml:lang="en">Male</TranslatedText>
               </Decode>
               <Alias Context="nci:ExtCodeID" Name="C20197" />
            </CodeListItem>
            <CodeListItem CodedValue="F">
               <Decode>
                  <TranslatedText xml:lang="en">Female</TranslatedText>
               </Decode>
               <Alias Context="nci:ExtCodeID" Name="C16576" />
            </CodeListItem>
         </CodeList>
         <CodeList OID="CL.ETHNIC" Name="CL ETHNIC" def:StandardOID="STD.2" DataType="text">
            <CodeListItem CodedValue="M">
               <Decode>
                  <TranslatedText xml:lang="en">Male</TranslatedText>
               </Decode>
               <Alias Context="nci:ExtCodeID" Name="C20197" />
            </CodeListItem>
            <CodeListItem CodedValue="F">
               <Decode>
                  <TranslatedText xml:lang="en">Female</TranslatedText>
               </Decode>
               <Alias Context="nci:ExtCodeID" Name="C16576" />
            </CodeListItem>
         </CodeList>
         <CodeList OID="CL.RACE" Name="CL RACE" def:StandardOID="STD.2" DataType="text">
            <CodeListItem CodedValue="M">
               <Decode>
                  <TranslatedText xml:lang="en">Male</TranslatedText>
               </Decode>
               <Alias Context="nci:ExtCodeID" Name="C20197" />
            </CodeListItem>
            <CodeListItem CodedValue="F">
               <Decode>
                  <TranslatedText xml:lang="en">Female</TranslatedText>
               </Decode>
               <Alias Context="nci:ExtCodeID" Name="C16576" />
            </CodeListItem>
         </CodeList>
         <CodeList OID="CL.LBORRESU" Name="CL LBORRESU" def:StandardOID="STD.2" DataType="text">
            <CodeListItem CodedValue="mg/dL">
               <Decode>
                  <TranslatedText xml:lang="en">Milligram per Deciliter</TranslatedText>
               </Decode>
               <Alias Context="nci:ExtCodeID" Name="C67015" />
            </CodeListItem>
            <CodeListItem CodedValue="U/L">
               <Decode>
                  <TranslatedText xml:lang="en">Unit per Liter</TranslatedText>
               </Decode>
               <Alias Context="nci:ExtCodeID" Name="C67456" />
            </CodeListItem>
            <CodeListItem CodedValue="umol/L">
               <Decode>
                  <TranslatedText xml:lang="en">Micromole per Liter</TranslatedText>
               </Decode>
               <Alias Context="nci:ExtCodeID" Name="C48508" />
            </CodeListItem>
            <CodeListItem CodedValue="ug/mL">
               <Decode>
                  <TranslatedText xml:lang="en">Microgram per Milliliter</TranslatedText>
               </Decode>
               <Alias Context="nci:ExtCodeID" Name="C64572" />
            </CodeListItem>
            <CodeListItem CodedValue="mIU/mL">
               <Decode>
                  <TranslatedText xml:lang="en">International Unit per Liter</TranslatedText>
               </Decode>
               <Alias Context="nci:ExtCodeID" Name="C67376" />
            </CodeListItem>
            <CodeListItem CodedValue="mmol/L">
               <Decode>
                  <TranslatedText xml:lang="en">Millimole per Liter</TranslatedText>
               </Decode>
               <Alias Context="nci:ExtCodeID" Name="C64387" />
            </CodeListItem>
            <CodeListItem CodedValue="ukat/L">
               <Decode>
                  <TranslatedText xml:lang="en">Microkatal per Liter</TranslatedText>
               </Decode>
               <Alias Context="nci:ExtCodeID" Name="C67397" />
            </CodeListItem>
            <CodeListItem CodedValue="nkat/L">
               <Decode>
                  <TranslatedText xml:lang="en">Nanokatal per Liter</TranslatedText>
               </Decode>
               <Alias Context="nci:ExtCodeID" Name="C70510" />
            </CodeListItem>
            <CodeListItem CodedValue="mg/L">
               <Decode>
                  <TranslatedText xml:lang="en">Microgram per Milliliter</TranslatedText>
               </Decode>
               <Alias Context="nci:ExtCodeID" Name="C64572" />
            </CodeListItem>
            <CodeListItem CodedValue="mEq/dL">
               <Decode>
                  <TranslatedText xml:lang="en">Milliequivalent per Deciliter</TranslatedText>
               </Decode>
               <Alias Context="nci:ExtCodeID" Name="C67473" />
            </CodeListItem>
            <CodeListItem CodedValue="mEq/L">
               <Decode>
                  <TranslatedText xml:lang="en">Milliequivalent per Liter</TranslatedText>
               </Decode>
               <Alias Context="nci:ExtCodeID" Name="C67474" />
            </CodeListItem>
            <CodeListItem CodedValue="IU/L">
               <Decode>
                  <TranslatedText xml:lang="en">International Unit per Liter</TranslatedText>
               </Decode>
               <Alias Context="nci:ExtCodeID" Name="C67376" />
            </CodeListItem>
            <CodeListItem CodedValue="g/dL">
               <Decode>
                  <TranslatedText xml:lang="en">Gram per Deciliter</TranslatedText>
               </Decode>
               <Alias Context="nci:ExtCodeID" Name="C64783" />
            </CodeListItem>
         </CodeList>
         <CodeList OID="CL.VSPOS" Name="CL VSPOS" def:StandardOID="STD.2" DataType="text">
            <CodeListItem CodedValue="SITTING">
               <Decode>
                  <TranslatedText xml:lang="en">Sitting</TranslatedText>
               </Decode>
               <Alias Context="nci:ExtCodeID" Name="C62122" />
            </CodeListItem>
            <CodeListItem CodedValue="SUPINE">
               <Decode>
                  <TranslatedText xml:lang="en">Supine Position</TranslatedText>
               </Decode>
               <Alias Context="nci:ExtCodeID" Name="C62167" />
            </CodeListItem>
            <CodeListItem CodedValue="STANDING">
               <Decode>
                  <TranslatedText xml:lang="en">Standing</TranslatedText>
               </Decode>
               <Alias Context="nci:ExtCodeID" Name="C62166" />
            </CodeListItem>
         </CodeList>
         <CodeList OID="CL.VSLOC" Name="CL VSLOC" def:StandardOID="STD.2" DataType="text">
            <CodeListItem CodedValue="BRACHIAL ARTERY">
               <Decode>
                  <TranslatedText xml:lang="en">Brachial Artery</TranslatedText>
               </Decode>
               <Alias Context="nci:ExtCodeID" Name="C12681" />
            </CodeListItem>
            <CodeListItem CodedValue="ORAL CAVITY">
               <Decode>
                  <TranslatedText xml:lang="en">Oral Cavity</TranslatedText>
               </Decode>
               <Alias Context="nci:ExtCodeID" Name="C12421" />
            </CodeListItem>
            <CodeListItem CodedValue="FOREHEAD">
               <Decode>
                  <TranslatedText xml:lang="en">Forehead</TranslatedText>
               </Decode>
               <Alias Context="nci:ExtCodeID" Name="C89803" />
            </CodeListItem>
            <CodeListItem CodedValue="AXILLA">
               <Decode>
                  <TranslatedText xml:lang="en">Axilla</TranslatedText>
               </Decode>
               <Alias Context="nci:ExtCodeID" Name="C12674" />
            </CodeListItem>
            <CodeListItem CodedValue="FEMORAL ARTERY">
               <Decode>
                  <TranslatedText xml:lang="en">Femoral Artery</TranslatedText>
               </Decode>
               <Alias Context="nci:ExtCodeID" Name="C12715" />
            </CodeListItem>
            <CodeListItem CodedValue="RECTUM">
               <Decode>
                  <TranslatedText xml:lang="en">Rectum</TranslatedText>
               </Decode>
               <Alias Context="nci:ExtCodeID" Name="C12390" />
            </CodeListItem>
            <CodeListItem CodedValue="CAROTID ARTERY">
               <Decode>
                  <TranslatedText xml:lang="en">Common Carotid Artery</TranslatedText>
               </Decode>
               <Alias Context="nci:ExtCodeID" Name="C12687" />
            </CodeListItem>
            <CodeListItem CodedValue="DORSALIS PEDIS ARTERY">
               <Decode>
                  <TranslatedText xml:lang="en">Dorsalis Pedis Artery</TranslatedText>
               </Decode>
               <Alias Context="nci:ExtCodeID" Name="C32478" />
            </CodeListItem>
            <CodeListItem CodedValue="EAR">
               <Decode>
                  <TranslatedText xml:lang="en">Ear</TranslatedText>
               </Decode>
               <Alias Context="nci:ExtCodeID" Name="C12394" />
            </CodeListItem>
            <CodeListItem CodedValue="RADIAL ARTERY">
               <Decode>
                  <TranslatedText xml:lang="en">Radial Artery</TranslatedText>
               </Decode>
               <Alias Context="nci:ExtCodeID" Name="C12838" />
            </CodeListItem>
         </CodeList>
         <CodeList OID="CL.VSORRESU" Name="CL VSORRESU" def:StandardOID="STD.2" DataType="text">
            <CodeListItem CodedValue="g">
               <Decode>
                  <TranslatedText xml:lang="en">Gram</TranslatedText>
               </Decode>
               <Alias Context="nci:ExtCodeID" Name="C48155" />
            </CodeListItem>
            <CodeListItem CodedValue="m">
               <Decode>
                  <TranslatedText xml:lang="en">Meter</TranslatedText>
               </Decode>
               <Alias Context="nci:ExtCodeID" Name="C41139" />
            </CodeListItem>
            <CodeListItem CodedValue="LB">
               <Decode>
                  <TranslatedText xml:lang="en">Pound</TranslatedText>
               </Decode>
               <Alias Context="nci:ExtCodeID" Name="C48531" />
            </CodeListItem>
            <CodeListItem CodedValue="cm">
               <Decode>
                  <TranslatedText xml:lang="en">Centimeter</TranslatedText>
               </Decode>
               <Alias Context="nci:ExtCodeID" Name="C49668" />
            </CodeListItem>
            <CodeListItem CodedValue="C">
               <Decode>
                  <TranslatedText xml:lang="en">Degree Celsius</TranslatedText>
               </Decode>
               <Alias Context="nci:ExtCodeID" Name="C42559" />
            </CodeListItem>
            <CodeListItem CodedValue="in">
               <Decode>
                  <TranslatedText xml:lang="en">Inch</TranslatedText>
               </Decode>
               <Alias Context="nci:ExtCodeID" Name="C48500" />
            </CodeListItem>
            <CodeListItem CodedValue="F">
               <Decode>
                  <TranslatedText xml:lang="en">Degree Fahrenheit</TranslatedText>
               </Decode>
               <Alias Context="nci:ExtCodeID" Name="C44277" />
            </CodeListItem>
            <CodeListItem CodedValue="kg">
               <Decode>
                  <TranslatedText xml:lang="en">Kilogram</TranslatedText>
               </Decode>
               <Alias Context="nci:ExtCodeID" Name="C28252" />
            </CodeListItem>
            <CodeListItem CodedValue="K">
               <Decode>
                  <TranslatedText xml:lang="en">Kelvin</TranslatedText>
               </Decode>
               <Alias Context="nci:ExtCodeID" Name="C42537" />
            </CodeListItem>
         </CodeList>
         <Codelist OID="CL.LB.LBORRESU.ALT" Name="CL LB LBORRESU ALT" def:StandardOID="STD.2" DataType="float" Length="8">
            <CodeListItem CodedValue="U/L">
               <Decode>
                  <TranslatedText xml:lang="en">Unit per Liter</TranslatedText>
               </Decode>
               <Alias Context="nci:ExtCodeID" Name="C67456" />
            </CodeListItem>
            <CodeListItem CodedValue="mIU/mL">
               <Decode>
                  <TranslatedText xml:lang="en">International Unit per Liter</TranslatedText>
               </Decode>
               <Alias Context="nci:ExtCodeID" Name="C67376" />
            </CodeListItem>
            <CodeListItem CodedValue="ukat/L">
               <Decode>
                  <TranslatedText xml:lang="en">Microkatal per Liter</TranslatedText>
               </Decode>
               <Alias Context="nci:ExtCodeID" Name="C67397" />
            </CodeListItem>
            <CodeListItem CodedValue="nkat/L">
               <Decode>
                  <TranslatedText xml:lang="en">Nanokatal per Liter</TranslatedText>
               </Decode>
               <Alias Context="nci:ExtCodeID" Name="C70510" />
            </CodeListItem>
            <CodeListItem CodedValue="IU/L">
               <Decode>
                  <TranslatedText xml:lang="en">International Unit per Liter</TranslatedText>
               </Decode>
               <Alias Context="nci:ExtCodeID" Name="C67376" />
            </CodeListItem>
         </Codelist>
         <Codelist OID="CL.LB.LBORRESU.ALP" Name="CL LB LBORRESU ALP" def:StandardOID="STD.2" DataType="float" Length="8">
            <CodeListItem CodedValue="U/L">
               <Decode>
                  <TranslatedText xml:lang="en">Unit per Liter</TranslatedText>
               </Decode>
               <Alias Context="nci:ExtCodeID" Name="C67456" />
            </CodeListItem>
            <CodeListItem CodedValue="mIU/mL">
               <Decode>
                  <TranslatedText xml:lang="en">International Unit per Liter</TranslatedText>
               </Decode>
               <Alias Context="nci:ExtCodeID" Name="C67376" />
            </CodeListItem>
            <CodeListItem CodedValue="ukat/L">
               <Decode>
                  <TranslatedText xml:lang="en">Microkatal per Liter</TranslatedText>
               </Decode>
               <Alias Context="nci:ExtCodeID" Name="C67397" />
            </CodeListItem>
            <CodeListItem CodedValue="IU/L">
               <Decode>
                  <TranslatedText xml:lang="en">International Unit per Liter</TranslatedText>
               </Decode>
               <Alias Context="nci:ExtCodeID" Name="C67376" />
            </CodeListItem>
         </Codelist>
         <Codelist OID="CL.LB.LBORRESU.AST" Name="CL LB LBORRESU AST" def:StandardOID="STD.2" DataType="float" Length="8">
            <CodeListItem CodedValue="U/L">
               <Decode>
                  <TranslatedText xml:lang="en">Unit per Liter</TranslatedText>
               </Decode>
               <Alias Context="nci:ExtCodeID" Name="C67456" />
            </CodeListItem>
            <CodeListItem CodedValue="mIU/mL">
               <Decode>
                  <TranslatedText xml:lang="en">International Unit per Liter</TranslatedText>
               </Decode>
               <Alias Context="nci:ExtCodeID" Name="C67376" />
            </CodeListItem>
            <CodeListItem CodedValue="ukat/L">
               <Decode>
                  <TranslatedText xml:lang="en">Microkatal per Liter</TranslatedText>
               </Decode>
               <Alias Context="nci:ExtCodeID" Name="C67397" />
            </CodeListItem>
            <CodeListItem CodedValue="IU/L">
               <Decode>
                  <TranslatedText xml:lang="en">International Unit per Liter</TranslatedText>
               </Decode>
               <Alias Context="nci:ExtCodeID" Name="C67376" />
            </CodeListItem>
         </Codelist>
         <Codelist OID="CL.LB.LBORRESU.CREAT" Name="CL LB LBORRESU CREAT" def:StandardOID="STD.2" DataType="float" Length="8">
            <CodeListItem CodedValue="mg/dL">
               <Decode>
                  <TranslatedText xml:lang="en">Milligram per Deciliter</TranslatedText>
               </Decode>
               <Alias Context="nci:ExtCodeID" Name="C67015" />
            </CodeListItem>
            <CodeListItem CodedValue="umol/L">
               <Decode>
                  <TranslatedText xml:lang="en">Micromole per Liter</TranslatedText>
               </Decode>
               <Alias Context="nci:ExtCodeID" Name="C48508" />
            </CodeListItem>
            <CodeListItem CodedValue="ug/mL">
               <Decode>
                  <TranslatedText xml:lang="en">Microgram per Milliliter</TranslatedText>
               </Decode>
               <Alias Context="nci:ExtCodeID" Name="C64572" />
            </CodeListItem>
            <CodeListItem CodedValue="mmol/L">
               <Decode>
                  <TranslatedText xml:lang="en">Millimole per Liter</TranslatedText>
               </Decode>
               <Alias Context="nci:ExtCodeID" Name="C64387" />
            </CodeListItem>
            <CodeListItem CodedValue="mg/L">
               <Decode>
                  <TranslatedText xml:lang="en">Microgram per Milliliter</TranslatedText>
               </Decode>
               <Alias Context="nci:ExtCodeID" Name="C64572" />
            </CodeListItem>
         </Codelist>
         <Codelist OID="CL.LB.LBORRESU.HBA1C" Name="CL LB LBORRESU HBA1C" def:StandardOID="STD.2" DataType="float" Length="8">
            <CodeListItem CodedValue="g/dL">
               <Decode>
                  <TranslatedText xml:lang="en">Gram per Deciliter</TranslatedText>
               </Decode>
               <Alias Context="nci:ExtCodeID" Name="C64783" />
            </CodeListItem>
         </Codelist>
         <Codelist OID="CL.LB.LBORRESU.K" Name="CL LB LBORRESU K" def:StandardOID="STD.2" DataType="float" Length="8">
            <CodeListItem CodedValue="mmol/L">
               <Decode>
                  <TranslatedText xml:lang="en">Millimole per Liter</TranslatedText>
               </Decode>
               <Alias Context="nci:ExtCodeID" Name="C64387" />
            </CodeListItem>
            <CodeListItem CodedValue="mEq/dL">
               <Decode>
                  <TranslatedText xml:lang="en">Milliequivalent per Deciliter</TranslatedText>
               </Decode>
               <Alias Context="nci:ExtCodeID" Name="C67473" />
            </CodeListItem>
            <CodeListItem CodedValue="mEq/L">
               <Decode>
                  <TranslatedText xml:lang="en">Milliequivalent per Liter</TranslatedText>
               </Decode>
               <Alias Context="nci:ExtCodeID" Name="C67474" />
            </CodeListItem>
         </Codelist>
         <Codelist OID="CL.LB.LBORRESU.SODIUM" Name="CL LB LBORRESU SODIUM" def:StandardOID="STD.2" DataType="float" Length="8">
            <CodeListItem CodedValue="mmol/L">
               <Decode>
                  <TranslatedText xml:lang="en">Millimole per Liter</TranslatedText>
               </Decode>
               <Alias Context="nci:ExtCodeID" Name="C64387" />
            </CodeListItem>
            <CodeListItem CodedValue="mEq/dL">
               <Decode>
                  <TranslatedText xml:lang="en">Milliequivalent per Deciliter</TranslatedText>
               </Decode>
               <Alias Context="nci:ExtCodeID" Name="C67473" />
            </CodeListItem>
            <CodeListItem CodedValue="mEq/L">
               <Decode>
                  <TranslatedText xml:lang="en">Milliequivalent per Liter</TranslatedText>
               </Decode>
               <Alias Context="nci:ExtCodeID" Name="C67474" />
            </CodeListItem>
         </Codelist>
         <Codelist OID="CL.VS.VSLOC.DIABP" Name="CL VS VSLOC DIABP" def:StandardOID="STD.2" DataType="string" Length="8">
            <CodeListItem CodedValue="BRACHIAL ARTERY">
               <Decode>
                  <TranslatedText xml:lang="en">Brachial Artery</TranslatedText>
               </Decode>
               <Alias Context="nci:ExtCodeID" Name="C12681" />
            </CodeListItem>
            <CodeListItem CodedValue="FEMORAL ARTERY">
               <Decode>
                  <TranslatedText xml:lang="en">Femoral Artery</TranslatedText>
               </Decode>
               <Alias Context="nci:ExtCodeID" Name="C12715" />
            </CodeListItem>
            <CodeListItem CodedValue="CAROTID ARTERY">
               <Decode>
                  <TranslatedText xml:lang="en">Common Carotid Artery</TranslatedText>
               </Decode>
               <Alias Context="nci:ExtCodeID" Name="C12687" />
            </CodeListItem>
            <CodeListItem CodedValue="DORSALIS PEDIS ARTERY">
               <Decode>
                  <TranslatedText xml:lang="en">Dorsalis Pedis Artery</TranslatedText>
               </Decode>
               <Alias Context="nci:ExtCodeID" Name="C32478" />
            </CodeListItem>
            <CodeListItem CodedValue="RADIAL ARTERY">
               <Decode>
                  <TranslatedText xml:lang="en">Radial Artery</TranslatedText>
               </Decode>
               <Alias Context="nci:ExtCodeID" Name="C12838" />
            </CodeListItem>
         </Codelist>
         <Codelist OID="CL.VS.VSPOS.DIABP" Name="CL VS VSPOS DIABP" def:StandardOID="STD.2" DataType="string" Length="8">
            <CodeListItem CodedValue="SITTING">
               <Decode>
                  <TranslatedText xml:lang="en">Sitting</TranslatedText>
               </Decode>
               <Alias Context="nci:ExtCodeID" Name="C62122" />
            </CodeListItem>
            <CodeListItem CodedValue="SUPINE">
               <Decode>
                  <TranslatedText xml:lang="en">Supine Position</TranslatedText>
               </Decode>
               <Alias Context="nci:ExtCodeID" Name="C62167" />
            </CodeListItem>
            <CodeListItem CodedValue="STANDING">
               <Decode>
                  <TranslatedText xml:lang="en">Standing</TranslatedText>
               </Decode>
               <Alias Context="nci:ExtCodeID" Name="C62166" />
            </CodeListItem>
         </Codelist>
         <Codelist OID="CL.VS.VSLOC.HR" Name="CL VS VSLOC HR" def:StandardOID="STD.2" DataType="string" Length="8">
            <CodeListItem CodedValue="BRACHIAL ARTERY">
               <Decode>
                  <TranslatedText xml:lang="en">Brachial Artery</TranslatedText>
               </Decode>
               <Alias Context="nci:ExtCodeID" Name="C12681" />
            </CodeListItem>
            <CodeListItem CodedValue="FEMORAL ARTERY">
               <Decode>
                  <TranslatedText xml:lang="en">Femoral Artery</TranslatedText>
               </Decode>
               <Alias Context="nci:ExtCodeID" Name="C12715" />
            </CodeListItem>
            <CodeListItem CodedValue="CAROTID ARTERY">
               <Decode>
                  <TranslatedText xml:lang="en">Common Carotid Artery</TranslatedText>
               </Decode>
               <Alias Context="nci:ExtCodeID" Name="C12687" />
            </CodeListItem>
            <CodeListItem CodedValue="DORSALIS PEDIS ARTERY">
               <Decode>
                  <TranslatedText xml:lang="en">Dorsalis Pedis Artery</TranslatedText>
               </Decode>
               <Alias Context="nci:ExtCodeID" Name="C32478" />
            </CodeListItem>
            <CodeListItem CodedValue="RADIAL ARTERY">
               <Decode>
                  <TranslatedText xml:lang="en">Radial Artery</TranslatedText>
               </Decode>
               <Alias Context="nci:ExtCodeID" Name="C12838" />
            </CodeListItem>
         </Codelist>
         <Codelist OID="CL.VS.VSPOS.HR" Name="CL VS VSPOS HR" def:StandardOID="STD.2" DataType="string" Length="8">
            <CodeListItem CodedValue="SITTING">
               <Decode>
                  <TranslatedText xml:lang="en">Sitting</TranslatedText>
               </Decode>
               <Alias Context="nci:ExtCodeID" Name="C62122" />
            </CodeListItem>
            <CodeListItem CodedValue="SUPINE">
               <Decode>
                  <TranslatedText xml:lang="en">Supine Position</TranslatedText>
               </Decode>
               <Alias Context="nci:ExtCodeID" Name="C62167" />
            </CodeListItem>
            <CodeListItem CodedValue="STANDING">
               <Decode>
                  <TranslatedText xml:lang="en">Standing</TranslatedText>
               </Decode>
               <Alias Context="nci:ExtCodeID" Name="C62166" />
            </CodeListItem>
         </Codelist>
         <Codelist OID="CL.VS.VSORRESU.HEIGHT" Name="CL VS VSORRESU HEIGHT" def:StandardOID="STD.2" DataType="float" Length="8">
            <CodeListItem CodedValue="m">
               <Decode>
                  <TranslatedText xml:lang="en">Meter</TranslatedText>
               </Decode>
               <Alias Context="nci:ExtCodeID" Name="C41139" />
            </CodeListItem>
            <CodeListItem CodedValue="cm">
               <Decode>
                  <TranslatedText xml:lang="en">Centimeter</TranslatedText>
               </Decode>
               <Alias Context="nci:ExtCodeID" Name="C49668" />
            </CodeListItem>
            <CodeListItem CodedValue="in">
               <Decode>
                  <TranslatedText xml:lang="en">Inch</TranslatedText>
               </Decode>
               <Alias Context="nci:ExtCodeID" Name="C48500" />
            </CodeListItem>
         </Codelist>
         <Codelist OID="CL.VS.VSLOC.SYSBP" Name="CL VS VSLOC SYSBP" def:StandardOID="STD.2" DataType="string" Length="8">
            <CodeListItem CodedValue="BRACHIAL ARTERY">
               <Decode>
                  <TranslatedText xml:lang="en">Brachial Artery</TranslatedText>
               </Decode>
               <Alias Context="nci:ExtCodeID" Name="C12681" />
            </CodeListItem>
            <CodeListItem CodedValue="FEMORAL ARTERY">
               <Decode>
                  <TranslatedText xml:lang="en">Femoral Artery</TranslatedText>
               </Decode>
               <Alias Context="nci:ExtCodeID" Name="C12715" />
            </CodeListItem>
            <CodeListItem CodedValue="CAROTID ARTERY">
               <Decode>
                  <TranslatedText xml:lang="en">Common Carotid Artery</TranslatedText>
               </Decode>
               <Alias Context="nci:ExtCodeID" Name="C12687" />
            </CodeListItem>
            <CodeListItem CodedValue="DORSALIS PEDIS ARTERY">
               <Decode>
                  <TranslatedText xml:lang="en">Dorsalis Pedis Artery</TranslatedText>
               </Decode>
               <Alias Context="nci:ExtCodeID" Name="C32478" />
            </CodeListItem>
            <CodeListItem CodedValue="RADIAL ARTERY">
               <Decode>
                  <TranslatedText xml:lang="en">Radial Artery</TranslatedText>
               </Decode>
               <Alias Context="nci:ExtCodeID" Name="C12838" />
            </CodeListItem>
         </Codelist>
         <Codelist OID="CL.VS.VSPOS.SYSBP" Name="CL VS VSPOS SYSBP" def:StandardOID="STD.2" DataType="string" Length="8">
            <CodeListItem CodedValue="SITTING">
               <Decode>
                  <TranslatedText xml:lang="en">Sitting</TranslatedText>
               </Decode>
               <Alias Context="nci:ExtCodeID" Name="C62122" />
            </CodeListItem>
            <CodeListItem CodedValue="SUPINE">
               <Decode>
                  <TranslatedText xml:lang="en">Supine Position</TranslatedText>
               </Decode>
               <Alias Context="nci:ExtCodeID" Name="C62167" />
            </CodeListItem>
            <CodeListItem CodedValue="STANDING">
               <Decode>
                  <TranslatedText xml:lang="en">Standing</TranslatedText>
               </Decode>
               <Alias Context="nci:ExtCodeID" Name="C62166" />
            </CodeListItem>
         </Codelist>
         <Codelist OID="CL.VS.VSLOC.TEMP" Name="CL VS VSLOC TEMP" def:StandardOID="STD.2" DataType="string" Length="8">
            <CodeListItem CodedValue="ORAL CAVITY">
               <Decode>
                  <TranslatedText xml:lang="en">Oral Cavity</TranslatedText>
               </Decode>
               <Alias Context="nci:ExtCodeID" Name="C12421" />
            </CodeListItem>
            <CodeListItem CodedValue="FOREHEAD">
               <Decode>
                  <TranslatedText xml:lang="en">Forehead</TranslatedText>
               </Decode>
               <Alias Context="nci:ExtCodeID" Name="C89803" />
            </CodeListItem>
            <CodeListItem CodedValue="AXILLA">
               <Decode>
                  <TranslatedText xml:lang="en">Axilla</TranslatedText>
               </Decode>
               <Alias Context="nci:ExtCodeID" Name="C12674" />
            </CodeListItem>
            <CodeListItem CodedValue="RECTUM">
               <Decode>
                  <TranslatedText xml:lang="en">Rectum</TranslatedText>
               </Decode>
               <Alias Context="nci:ExtCodeID" Name="C12390" />
            </CodeListItem>
            <CodeListItem CodedValue="EAR">
               <Decode>
                  <TranslatedText xml:lang="en">Ear</TranslatedText>
               </Decode>
               <Alias Context="nci:ExtCodeID" Name="C12394" />
            </CodeListItem>
         </Codelist>
         <Codelist OID="CL.VS.VSORRESU.TEMP" Name="CL VS VSORRESU TEMP" def:StandardOID="STD.2" DataType="float" Length="8">
            <CodeListItem CodedValue="C">
               <Decode>
                  <TranslatedText xml:lang="en">Degree Celsius</TranslatedText>
               </Decode>
               <Alias Context="nci:ExtCodeID" Name="C42559" />
            </CodeListItem>
            <CodeListItem CodedValue="F">
               <Decode>
                  <TranslatedText xml:lang="en">Degree Fahrenheit</TranslatedText>
               </Decode>
               <Alias Context="nci:ExtCodeID" Name="C44277" />
            </CodeListItem>
            <CodeListItem CodedValue="K">
               <Decode>
                  <TranslatedText xml:lang="en">Kelvin</TranslatedText>
               </Decode>
               <Alias Context="nci:ExtCodeID" Name="C42537" />
            </CodeListItem>
         </Codelist>
         <Codelist OID="CL.VS.VSORRESU.WEIGHT" Name="CL VS VSORRESU WEIGHT" def:StandardOID="STD.2" DataType="float" Length="8">
            <CodeListItem CodedValue="g">
               <Decode>
                  <TranslatedText xml:lang="en">Gram</TranslatedText>
               </Decode>
               <Alias Context="nci:ExtCodeID" Name="C48155" />
            </CodeListItem>
            <CodeListItem CodedValue="LB">
               <Decode>
                  <TranslatedText xml:lang="en">Pound</TranslatedText>
               </Decode>
               <Alias Context="nci:ExtCodeID" Name="C48531" />
            </CodeListItem>
            <CodeListItem CodedValue="kg">
               <Decode>
                  <TranslatedText xml:lang="en">Kilogram</TranslatedText>
               </Decode>
               <Alias Context="nci:ExtCodeID" Name="C28252" />
            </CodeListItem>
         </Codelist>
         <def:CommentDef OID="COM.STD.1">
            <Description>
               <TranslatedText xml:lang="en">Yada yada yada</TranslatedText>
            </Description>
         </def:CommentDef>
      </MetaDataVersion>
   </Study>
</ODM>