[
  {
    "STUDYID": "CDISCPILOT01",
    "DOMAIN": "VS",
    "USUBJID": "01-701-1015",
    "VSSEQ": 1.0,
    "VSTESTCD": "DIABP",
    "VSTEST": "Diastolic Blood Pressure",
    "VSPOS": "SUPINE",
    "VSORRES": "64",
    "VSORRESU": "mmHg",
    "VSSTRESC": "64",
    "VSSTRESN": 64.0,
    "VSSTRESU": "mmHg",
    "VSSTAT": "",
    "VSLOC": "",
    "VSBLFL": "",
    "VISITNUM": 1.0,
    "VISIT": "SCREENING 1",
    "VISITDY": -7.0,
    "VSDTC": "2013-12-26",
    "VSDY": -7.0,
    "VSTPT": "AFTER LYING DOWN FOR 5 MINUTES",
    "VSTPTNUM": 815.0,
    "VSELTM": "PT5M",
    "VSTPTREF": "PATIENT SUPINE"
  },
  {
    "STUDYID": "CDISCPILOT01",
    "DOMAIN": "VS",
    "USUBJID": "01-701-1015",
    "VSSEQ": 2.0,
    "VSTESTCD": "DIABP",
    "VSTEST": "Diastolic Blood Pressure",
    "VSPOS": "STANDING",
    "VSORRES": "83",
    "VSORRESU": "mmHg",
    "VSSTRESC": "83",
    "VSSTRESN": 83.0,
    "VSSTRESU": "mmHg",
    "VSSTAT": "",
    "VSLOC": "",
    "VSBLFL": "",
    "VISITNUM": 1.0,
    "VISIT": "SCREENING 1",
    "VISITDY": -7.0,
    "VSDTC": "2013-12-26",
    "VSDY": -7.0,
    "VSTPT": "AFTER STANDING FOR 1 MINUTE",
    "VSTPTNUM": 816.0,
    "VSELTM": "PT1M",
    "VSTPTREF": "PATIENT STANDING"
  },
  {
    "STUDYID": "CDISCPILOT01",
    "DOMAIN": "VS",
    "USUBJID": "01-701-1015",
    "VSSEQ": 3.0,
    "VSTESTCD": "DIABP",
    "VSTEST": "Diastolic Blood Pressure",
    "VSPOS": "STANDING",
    "VSORRES": "57",
    "VSORRESU": "mmHg",
    "VSSTRESC": "57",
    "VSSTRESN": 57.0,
    "VSSTRESU": "mmHg",
    "VSSTAT": "",
    "VSLOC": "",
    "VSBLFL": "",
    "VISITNUM": 1.0,
    "VISIT": "SCREENING 1",
    "VISITDY": -7.0,
    "VSDTC": "2013-12-26",
    "VSDY": -7.0,
    "VSTPT": "AFTER STANDING FOR 3 MINUTES",
    "VSTPTNUM": 817.0,
    "VSELTM": "PT3M",
    "VSTPTREF": "PATIENT STANDING"
  },
  {
    "STUDYID": "CDISCPILOT01",
    "DOMAIN": "VS",
    "USUBJID": "01-701-1015",
    "VSSEQ": 4.0,
    "VSTESTCD": "DIABP",
    "VSTEST": "Diastolic Blood Pressure",
    "VSPOS": "SUPINE",
    "VSORRES": "68",
    "VSORRESU": "mmHg",
    "VSSTRESC": "68",
    "VSSTRESN": 68.0,
    "VSSTRESU": "mmHg",
    "VSSTAT": "",
    "VSLOC": "",
    "VSBLFL": "",
    "VISITNUM": 2.0,
    "VISIT": "SCREENING 2",
    "VISITDY": -1.0,
    "VSDTC": "2013-12-31",
    "VSDY": -2.0,
    "VSTPT": "AFTER LYING DOWN FOR 5 MINUTES",
    "VSTPTNUM": 815.0,
    "VSELTM": "PT5M",
    "VSTPTREF": "PATIENT SUPINE"
  },
  {
    "STUDYID": "CDISCPILOT01",
    "DOMAIN": "VS",
    "USUBJID": "01-701-1015",
    "VSSEQ": 5.0,
    "VSTESTCD": "DIABP",
    "VSTEST": "Diastolic Blood Pressure",
    "VSPOS": "STANDING",
    "VSORRES": "59",
    "VSORRESU": "mmHg",
    "VSSTRESC": "59",
    "VSSTRESN": 59.0,
    "VSSTRESU": "mmHg",
    "VSSTAT": "",
    "VSLOC": "",
    "VSBLFL": "",
    "VISITNUM": 2.0,
    "VISIT": "SCREENING 2",
    "VISITDY": -1.0,
    "VSDTC": "2013-12-31",
    "VSDY": -2.0,
    "VSTPT": "AFTER STANDING FOR 1 MINUTE",
    "VSTPTNUM": 816.0,
    "VSELTM": "PT1M",
    "VSTPTREF": "PATIENT STANDING"
  },
  {
    "STUDYID": "CDISCPILOT01",
    "DOMAIN": "VS",
    "USUBJID": "01-701-1015",
    "VSSEQ": 6.0,
    "VSTESTCD": "DIABP",
    "VSTEST": "Diastolic Blood Pressure",
    "VSPOS": "STANDING",
    "VSORRES": "71",
    "VSORRESU": "mmHg",
    "VSSTRESC": "71",
    "VSSTRESN": 71.0,
    "VSSTRESU": "mmHg",
    "VSSTAT": "",
    "VSLOC": "",
    "VSBLFL": "",
    "VISITNUM": 2.0,
    "VISIT": "SCREENING 2",
    "VISITDY": -1.0,
    "VSDTC": "2013-12-31",
    "VSDY": -2.0,
    "VSTPT": "AFTER STANDING FOR 3 MINUTES",
    "VSTPTNUM": 817.0,
    "VSELTM": "PT3M",
    "VSTPTREF": "PATIENT STANDING"
  },
  {
    "STUDYID": "CDISCPILOT01",
    "DOMAIN": "VS",
    "USUBJID": "01-701-1015",
    "VSSEQ": 7.0,
    "VSTESTCD": "DIABP",
    "VSTEST": "Diastolic Blood Pressure",
    "VSPOS": "SUPINE",
    "VSORRES": "56",
    "VSORRESU": "mmHg",
    "VSSTRESC": "56",
    "VSSTRESN": 56.0,
    "VSSTRESU": "mmHg",
    "VSSTAT": "",
    "VSLOC": "",
    "VSBLFL": "Y",
    "VISITNUM": 3.0,
    "VISIT": "BASELINE",
    "VISITDY": 1.0,
    "VSDTC": "2014-01-02",
    "VSDY": 1.0,
    "VSTPT": "AFTER LYING DOWN FOR 5 MINUTES",
    "VSTPTNUM": 815.0,
    "VSELTM": "PT5M",
    "VSTPTREF": "PATIENT SUPINE"
  },
  {
    "STUDYID": "CDISCPILOT01",
    "DOMAIN": "VS",
    "USUBJID": "01-701-1015",
    "VSSEQ": 8.0,
    "VSTESTCD": "DIABP",
    "VSTEST": "Diastolic Blood Pressure",
    "VSPOS": "STANDING",
    "VSORRES": "51",
    "VSORRESU": "mmHg",
    "VSSTRESC": "51",
    "VSSTRESN": 51.0,
    "VSSTRESU": "mmHg",
    "VSSTAT": "",
    "VSLOC": "",
    "VSBLFL": "Y",
    "VISITNUM": 3.0,
    "VISIT": "BASELINE",
    "VISITDY": 1.0,
    "VSDTC": "2014-01-02",
    "VSDY": 1.0,
    "VSTPT": "AFTER STANDING FOR 1 MINUTE",
    "VSTPTNUM": 816.0,
    "VSELTM": "PT1M",
    "VSTPTREF": "PATIENT STANDING"
  },
  {
    "STUDYID": "CDISCPILOT01",
    "DOMAIN": "VS",
    "USUBJID": "01-701-1015",
    "VSSEQ": 9.0,
    "VSTESTCD": "DIABP",
    "VSTEST": "Diastolic Blood Pressure",
    "VSPOS": "STANDING",
    "VSORRES": "61",
    "VSORRESU": "mmHg",
    "VSSTRESC": "61",
    "VSSTRESN": 61.0,
    "VSSTRESU": "mmHg",
    "VSSTAT": "",
    "VSLOC": "",
    "VSBLFL": "Y",
    "VISITNUM": 3.0,
    "VISIT": "BASELINE",
    "VISITDY": 1.0,
    "VSDTC": "2014-01-02",
    "VSDY": 1.0,
    "VSTPT": "AFTER STANDING FOR 3 MINUTES",
    "VSTPTNUM": 817.0,
    "VSELTM": "PT3M",
    "VSTPTREF": "PATIENT STANDING"
  },
  {
    "STUDYID": "CDISCPILOT01",
    "DOMAIN": "VS",
    "USUBJID": "01-701-1015",
    "VSSEQ": 10.0,
    "VSTESTCD": "DIABP",
    "VSTEST": "Diastolic Blood Pressure",
    "VSPOS": "SUPINE",
    "VSORRES": "67",
    "VSORRESU": "mmHg",
    "VSSTRESC": "67",
    "VSSTRESN": 67.0,
    "VSSTRESU": "mmHg",
    "VSSTAT": "",
    "VSLOC": "",
    "VSBLFL": "",
    "VISITNUM": 3.5,
    "VISIT": "AMBUL ECG PLACEMENT",
    "VISITDY": 13.0,
    "VSDTC": "2014-01-14",
    "VSDY": 13.0,
    "VSTPT": "AFTER LYING DOWN FOR 5 MINUTES",
    "VSTPTNUM": 815.0,
    "VSELTM": "PT5M",
    "VSTPTREF": "PATIENT SUPINE"
  },
  {
    "STUDYID": "CDISCPILOT01",
    "DOMAIN": "VS",
    "USUBJID": "01-701-1015",
    "VSSEQ": 11.0,
    "VSTESTCD": "DIABP",
    "VSTEST": "Diastolic Blood Pressure",
    "VSPOS": "STANDING",
    "VSORRES": "61",
    "VSORRESU": "mmHg",
    "VSSTRESC": "61",
    "VSSTRESN": 61.0,
    "VSSTRESU": "mmHg",
    "VSSTAT": "",
    "VSLOC": "",
    "VSBLFL": "",
    "VISITNUM": 3.5,
    "VISIT": "AMBUL ECG PLACEMENT",
    "VISITDY": 13.0,
    "VSDTC": "2014-01-14",
    "VSDY": 13.0,
    "VSTPT": "AFTER STANDING FOR 1 MINUTE",
    "VSTPTNUM": 816.0,
    "VSELTM": "PT1M",
    "VSTPTREF": "PATIENT STANDING"
  },
  {
    "STUDYID": "CDISCPILOT01",
    "DOMAIN": "VS",
    "USUBJID": "01-701-1015",
    "VSSEQ": 12.0,
    "VSTESTCD": "DIABP",
    "VSTEST": "Diastolic Blood Pressure",
    "VSPOS": "STANDING",
    "VSORRES": "65",
    "VSORRESU": "mmHg",
    "VSSTRESC": "65",
    "VSSTRESN": 65.0,
    "VSSTRESU": "mmHg",
    "VSSTAT": "",
    "VSLOC": "",
    "VSBLFL": "",
    "VISITNUM": 3.5,
    "VISIT": "AMBUL ECG PLACEMENT",
    "VISITDY": 13.0,
    "VSDTC": "2014-01-14",
    "VSDY": 13.0,
    "VSTPT": "AFTER STANDING FOR 3 MINUTES",
    "VSTPTNUM": 817.0,
    "VSELTM": "PT3M",
    "VSTPTREF": "PATIENT STANDING"
  },
  {
    "STUDYID": "CDISCPILOT01",
    "DOMAIN": "VS",
    "USUBJID": "01-701-1015",
    "VSSEQ": 13.0,
    "VSTESTCD": "DIABP",
    "VSTEST": "Diastolic Blood Pressure",
    "VSPOS": "SUPINE",
    "VSORRES": "56",
    "VSORRESU": "mmHg",
    "VSSTRESC": "56",
    "VSSTRESN": 56.0,
    "VSSTRESU": "mmHg",
    "VSSTAT": "",
    "VSLOC": "",
    "VSBLFL": "",
    "VISITNUM": 4.0,
    "VISIT": "WEEK 2",
    "VISITDY": 14.0,
    "VSDTC": "2014-01-16",
    "VSDY": 15.0,
    "VSTPT": "AFTER LYING DOWN FOR 5 MINUTES",
    "VSTPTNUM": 815.0,
    "VSELTM": "PT5M",
    "VSTPTREF": "PATIENT SUPINE"
  },
  {
    "STUDYID": "CDISCPILOT01",
    "DOMAIN": "VS",
    "USUBJID": "01-701-1015",
    "VSSEQ": 14.0,
    "VSTESTCD": "DIABP",
    "VSTEST": "Diastolic Blood Pressure",
    "VSPOS": "STANDING",
    "VSORRES": "50",
    "VSORRESU": "mmHg",
    "VSSTRESC": "50",
    "VSSTRESN": 50.0,
    "VSSTRESU": "mmHg",
    "VSSTAT": "",
    "VSLOC": "",
    "VSBLFL": "",
    "VISITNUM": 4.0,
    "VISIT": "WEEK 2",
    "VISITDY": 14.0,
    "VSDTC": "2014-01-16",
    "VSDY": 15.0,
    "VSTPT": "AFTER STANDING FOR 1 MINUTE",
    "VSTPTNUM": 816.0,
    "VSELTM": "PT1M",
    "VSTPTREF": "PATIENT STANDING"
  },
  {
    "STUDYID": "CDISCPILOT01",
    "DOMAIN": "VS",
    "USUBJID": "01-701-1015",
    "VSSEQ": 15.0,
    "VSTESTCD": "DIABP",
    "VSTEST": "Diastolic Blood Pressure",
    "VSPOS": "STANDING",
    "VSORRES": "54",
    "VSORRESU": "mmHg",
    "VSSTRESC": "54",
    "VSSTRESN": 54.0,
    "VSSTRESU": "mmHg",
    "VSSTAT": "",
    "VSLOC": "",
    "VSBLFL": "",
    "VISITNUM": 4.0,
    "VISIT": "WEEK 2",
    "VISITDY": 14.0,
    "VSDTC": "2014-01-16",
    "VSDY": 15.0,
    "VSTPT": "AFTER STANDING FOR 3 MINUTES",
    "VSTPTNUM": 817.0,
    "VSELTM": "PT3M",
    "VSTPTREF": "PATIENT STANDING"
  },
  {
    "STUDYID": "CDISCPILOT01",
    "DOMAIN": "VS",
    "USUBJID": "01-701-1015",
    "VSSEQ": 16.0,
    "VSTESTCD": "DIABP",
    "VSTEST": "Diastolic Blood Pressure",
    "VSPOS": "SUPINE",
    "VSORRES": "64",
    "VSORRESU": "mmHg",
    "VSSTRESC": "64",
    "VSSTRESN": 64.0,
    "VSSTRESU": "mmHg",
    "VSSTAT": "",
    "VSLOC": "",
    "VSBLFL": "",
    "VISITNUM": 5.0,
    "VISIT": "WEEK 4",
    "VISITDY": 28.0,
    "VSDTC": "2014-01-30",
    "VSDY": 29.0,
    "VSTPT": "AFTER LYING DOWN FOR 5 MINUTES",
    "VSTPTNUM": 815.0,
    "VSELTM": "PT5M",
    "VSTPTREF": "PATIENT SUPINE"
  },
  {
    "STUDYID": "CDISCPILOT01",
    "DOMAIN": "VS",
    "USUBJID": "01-701-1015",
    "VSSEQ": 17.0,
    "VSTESTCD": "DIABP",
    "VSTEST": "Diastolic Blood Pressure",
    "VSPOS": "STANDING",
    "VSORRES": "55",
    "VSORRESU": "mmHg",
    "VSSTRESC": "55",
    "VSSTRESN": 55.0,
    "VSSTRESU": "mmHg",
    "VSSTAT": "",
    "VSLOC": "",
    "VSBLFL": "",
    "VISITNUM": 5.0,
    "VISIT": "WEEK 4",
    "VISITDY": 28.0,
    "VSDTC": "2014-01-30",
    "VSDY": 29.0,
    "VSTPT": "AFTER STANDING FOR 1 MINUTE",
    "VSTPTNUM": 816.0,
    "VSELTM": "PT1M",
    "VSTPTREF": "PATIENT STANDING"
  },
  {
    "STUDYID": "CDISCPILOT01",
    "DOMAIN": "VS",
    "USUBJID": "01-701-1015",
    "VSSEQ": 18.0,
    "VSTESTCD": "DIABP",
    "VSTEST": "Diastolic Blood Pressure",
    "VSPOS": "STANDING",
    "VSORRES": "53",
    "VSORRESU": "mmHg",
    "VSSTRESC": "53",
    "VSSTRESN": 53.0,
    "VSSTRESU": "mmHg",
    "VSSTAT": "",
    "VSLOC": "",
    "VSBLFL": "",
    "VISITNUM": 5.0,
    "VISIT": "WEEK 4",
    "VISITDY": 28.0,
    "VSDTC": "2014-01-30",
    "VSDY": 29.0,
    "VSTPT": "AFTER STANDING FOR 3 MINUTES",
    "VSTPTNUM": 817.0,
    "VSELTM": "PT3M",
    "VSTPTREF": "PATIENT STANDING"
  },
  {
    "STUDYID": "CDISCPILOT01",
    "DOMAIN": "VS",
    "USUBJID": "01-701-1015",
    "VSSEQ": 19.0,
    "VSTESTCD": "DIABP",
    "VSTEST": "Diastolic Blood Pressure",
    "VSPOS": "SUPINE",
    "VSORRES": "72",
    "VSORRESU": "mmHg",
    "VSSTRESC": "72",
    "VSSTRESN": 72.0,
    "VSSTRESU": "mmHg",
    "VSSTAT": "",
    "VSLOC": "",
    "VSBLFL": "",
    "VISITNUM": 6.0,
    "VISIT": "AMBUL ECG REMOVAL",
    "VISITDY": 30.0,
    "VSDTC": "2014-02-01",
    "VSDY": 31.0,
    "VSTPT": "AFTER LYING DOWN FOR 5 MINUTES",
    "VSTPTNUM": 815.0,
    "VSELTM": "PT5M",
    "VSTPTREF": "PATIENT SUPINE"
  },
  {
    "STUDYID": "CDISCPILOT01",
    "DOMAIN": "VS",
    "USUBJID": "01-701-1015",
    "VSSEQ": 20.0,
    "VSTESTCD": "DIABP",
    "VSTEST": "Diastolic Blood Pressure",
    "VSPOS": "STANDING",
    "VSORRES": "61",
    "VSORRESU": "mmHg",
    "VSSTRESC": "61",
    "VSSTRESN": 61.0,
    "VSSTRESU": "mmHg",
    "VSSTAT": "",
    "VSLOC": "",
    "VSBLFL": "",
    "VISITNUM": 6.0,
    "VISIT": "AMBUL ECG REMOVAL",
    "VISITDY": 30.0,
    "VSDTC": "2014-02-01",
    "VSDY": 31.0,
    "VSTPT": "AFTER STANDING FOR 1 MINUTE",
    "VSTPTNUM": 816.0,
    "VSELTM": "PT1M",
    "VSTPTREF": "PATIENT STANDING"
  },
  {
    "STUDYID": "CDISCPILOT01",
    "DOMAIN": "VS",
    "USUBJID": "01-701-1015",
    "VSSEQ": 21.0,
    "VSTESTCD": "DIABP",
    "VSTEST": "Diastolic Blood Pressure",
    "VSPOS": "STANDING",
    "VSORRES": "53",
    "VSORRESU": "mmHg",
    "VSSTRESC": "53",
    "VSSTRESN": 53.0,
    "VSSTRESU": "mmHg",
    "VSSTAT": "",
    "VSLOC": "",
    "VSBLFL": "",
    "VISITNUM": 6.0,
    "VISIT": "AMBUL ECG REMOVAL",
    "VISITDY": 30.0,
    "VSDTC": "2014-02-01",
    "VSDY": 31.0,
    "VSTPT": "AFTER STANDING FOR 3 MINUTES",
    "VSTPTNUM": 817.0,
    "VSELTM": "PT3M",
    "VSTPTREF": "PATIENT STANDING"
  },
  {
    "STUDYID": "CDISCPILOT01",
    "DOMAIN": "VS",
    "USUBJID": "01-701-1015",
    "VSSEQ": 22.0,
    "VSTESTCD": "DIABP",
    "VSTEST": "Diastolic Blood Pressure",
    "VSPOS": "SUPINE",
    "VSORRES": "55",
    "VSORRESU": "mmHg",
    "VSSTRESC": "55",
    "VSSTRESN": 55.0,
    "VSSTRESU": "mmHg",
    "VSSTAT": "",
    "VSLOC": "",
    "VSBLFL": "",
    "VISITNUM": 7.0,
    "VISIT": "WEEK 6",
    "VISITDY": 42.0,
    "VSDTC": "2014-02-12",
    "VSDY": 42.0,
    "VSTPT": "AFTER LYING DOWN FOR 5 MINUTES",
    "VSTPTNUM": 815.0,
    "VSELTM": "PT5M",
    "VSTPTREF": "PATIENT SUPINE"
  },
  {
    "STUDYID": "CDISCPILOT01",
    "DOMAIN": "VS",
    "USUBJID": "01-701-1015",
    "VSSEQ": 23.0,
    "VSTESTCD": "DIABP",
    "VSTEST": "Diastolic Blood Pressure",
    "VSPOS": "STANDING",
    "VSORRES": "63",
    "VSORRESU": "mmHg",
    "VSSTRESC": "63",
    "VSSTRESN": 63.0,
    "VSSTRESU": "mmHg",
    "VSSTAT": "",
    "VSLOC": "",
    "VSBLFL": "",
    "VISITNUM": 7.0,
    "VISIT": "WEEK 6",
    "VISITDY": 42.0,
    "VSDTC": "2014-02-12",
    "VSDY": 42.0,
    "VSTPT": "AFTER STANDING FOR 1 MINUTE",
    "VSTPTNUM": 816.0,
    "VSELTM": "PT1M",
    "VSTPTREF": "PATIENT STANDING"
  },
  {
    "STUDYID": "CDISCPILOT01",
    "DOMAIN": "VS",
    "USUBJID": "01-701-1015",
    "VSSEQ": 24.0,
    "VSTESTCD": "DIABP",
    "VSTEST": "Diastolic Blood Pressure",
    "VSPOS": "STANDING",
    "VSORRES": "60",
    "VSORRESU": "mmHg",
    "VSSTRESC": "60",
    "VSSTRESN": 60.0,
    "VSSTRESU": "mmHg",
    "VSSTAT": "",
    "VSLOC": "",
    "VSBLFL": "",
    "VISITNUM": 7.0,
    "VISIT": "WEEK 6",
    "VISITDY": 42.0,
    "VSDTC": "2014-02-12",
    "VSDY": 42.0,
    "VSTPT": "AFTER STANDING FOR 3 MINUTES",
    "VSTPTNUM": 817.0,
    "VSELTM": "PT3M",
    "VSTPTREF": "PATIENT STANDING"
  },
  {
    "STUDYID": "CDISCPILOT01",
    "DOMAIN": "VS",
    "USUBJID": "01-701-1015",
    "VSSEQ": 25.0,
    "VSTESTCD": "DIABP",
    "VSTEST": "Diastolic Blood Pressure",
    "VSPOS": "SUPINE",
    "VSORRES": "67",
    "VSORRESU": "mmHg",
    "VSSTRESC": "67",
    "VSSTRESN": 67.0,
    "VSSTRESU": "mmHg",
    "VSSTAT": "",
    "VSLOC": "",
    "VSBLFL": "",
    "VISITNUM": 8.0,
    "VISIT": "WEEK 8",
    "VISITDY": 56.0,
    "VSDTC": "2014-03-05",
    "VSDY": 63.0,
    "VSTPT": "AFTER LYING DOWN FOR 5 MINUTES",
    "VSTPTNUM": 815.0,
    "VSELTM": "PT5M",
    "VSTPTREF": "PATIENT SUPINE"
  },
  {
    "STUDYID": "CDISCPILOT01",
    "DOMAIN": "VS",
    "USUBJID": "01-701-1015",
    "VSSEQ": 26.0,
    "VSTESTCD": "DIABP",
    "VSTEST": "Diastolic Blood Pressure",
    "VSPOS": "STANDING",
    "VSORRES": "62",
    "VSORRESU": "mmHg",
    "VSSTRESC": "62",
    "VSSTRESN": 62.0,
    "VSSTRESU": "mmHg",
    "VSSTAT": "",
    "VSLOC": "",
    "VSBLFL": "",
    "VISITNUM": 8.0,
    "VISIT": "WEEK 8",
    "VISITDY": 56.0,
    "VSDTC": "2014-03-05",
    "VSDY": 63.0,
    "VSTPT": "AFTER STANDING FOR 1 MINUTE",
    "VSTPTNUM": 816.0,
    "VSELTM": "PT1M",
    "VSTPTREF": "PATIENT STANDING"
  },
  {
    "STUDYID": "CDISCPILOT01",
    "DOMAIN": "VS",
    "USUBJID": "01-701-1015",
    "VSSEQ": 27.0,
    "VSTESTCD": "DIABP",
    "VSTEST": "Diastolic Blood Pressure",
    "VSPOS": "STANDING",
    "VSORRES": "71",
    "VSORRESU": "mmHg",
    "VSSTRESC": "71",
    "VSSTRESN": 71.0,
    "VSSTRESU": "mmHg",
    "VSSTAT": "",
    "VSLOC": "",
    "VSBLFL": "",
    "VISITNUM": 8.0,
    "VISIT": "WEEK 8",
    "VISITDY": 56.0,
    "VSDTC": "2014-03-05",
    "VSDY": 63.0,
    "VSTPT": "AFTER STANDING FOR 3 MINUTES",
    "VSTPTNUM": 817.0,
    "VSELTM": "PT3M",
    "VSTPTREF": "PATIENT STANDING"
  },
  {
    "STUDYID": "CDISCPILOT01",
    "DOMAIN": "VS",
    "USUBJID": "01-701-1015",
    "VSSEQ": 28.0,
    "VSTESTCD": "DIABP",
    "VSTEST": "Diastolic Blood Pressure",
    "VSPOS": "SUPINE",
    "VSORRES": "68",
    "VSORRESU": "mmHg",
    "VSSTRESC": "68",
    "VSSTRESN": 68.0,
    "VSSTRESU": "mmHg",
    "VSSTAT": "",
    "VSLOC": "",
    "VSBLFL": "",
    "VISITNUM": 9.0,
    "VISIT": "WEEK 12",
    "VISITDY": 84.0,
    "VSDTC": "2014-03-26",
    "VSDY": 84.0,
    "VSTPT": "AFTER LYING DOWN FOR 5 MINUTES",
    "VSTPTNUM": 815.0,
    "VSELTM": "PT5M",
    "VSTPTREF": "PATIENT SUPINE"
  },
  {
    "STUDYID": "CDISCPILOT01",
    "DOMAIN": "VS",
    "USUBJID": "01-701-1015",
    "VSSEQ": 29.0,
    "VSTESTCD": "DIABP",
    "VSTEST": "Diastolic Blood Pressure",
    "VSPOS": "STANDING",
    "VSORRES": "60",
    "VSORRESU": "mmHg",
    "VSSTRESC": "60",
    "VSSTRESN": 60.0,
    "VSSTRESU": "mmHg",
    "VSSTAT": "",
    "VSLOC": "",
    "VSBLFL": "",
    "VISITNUM": 9.0,
    "VISIT": "WEEK 12",
    "VISITDY": 84.0,
    "VSDTC": "2014-03-26",
    "VSDY": 84.0,
    "VSTPT": "AFTER STANDING FOR 1 MINUTE",
    "VSTPTNUM": 816.0,
    "VSELTM": "PT1M",
    "VSTPTREF": "PATIENT STANDING"
  },
  {
    "STUDYID": "CDISCPILOT01",
    "DOMAIN": "VS",
    "USUBJID": "01-701-1015",
    "VSSEQ": 30.0,
    "VSTESTCD": "DIABP",
    "VSTEST": "Diastolic Blood Pressure",
    "VSPOS": "STANDING",
    "VSORRES": "64",
    "VSORRESU": "mmHg",
    "VSSTRESC": "64",
    "VSSTRESN": 64.0,
    "VSSTRESU": "mmHg",
    "VSSTAT": "",
    "VSLOC": "",
    "VSBLFL": "",
    "VISITNUM": 9.0,
    "VISIT": "WEEK 12",
    "VISITDY": 84.0,
    "VSDTC": "2014-03-26",
    "VSDY": 84.0,
    "VSTPT": "AFTER STANDING FOR 3 MINUTES",
    "VSTPTNUM": 817.0,
    "VSELTM": "PT3M",
    "VSTPTREF": "PATIENT STANDING"
  },
  {
    "STUDYID": "CDISCPILOT01",
    "DOMAIN": "VS",
    "USUBJID": "01-701-1015",
    "VSSEQ": 31.0,
    "VSTESTCD": "DIABP",
    "VSTEST": "Diastolic Blood Pressure",
    "VSPOS": "SUPINE",
    "VSORRES": "66",
    "VSORRESU": "mmHg",
    "VSSTRESC": "66",
    "VSSTRESN": 66.0,
    "VSSTRESU": "mmHg",
    "VSSTAT": "",
    "VSLOC": "",
    "VSBLFL": "",
    "VISITNUM": 10.0,
    "VISIT": "WEEK 16",
    "VISITDY": 112.0,
    "VSDTC": "2014-05-07",
    "VSDY": 126.0,
    "VSTPT": "AFTER LYING DOWN FOR 5 MINUTES",
    "VSTPTNUM": 815.0,
    "VSELTM": "PT5M",
    "VSTPTREF": "PATIENT SUPINE"
  },
  {
    "STUDYID": "CDISCPILOT01",
    "DOMAIN": "VS",
    "USUBJID": "01-701-1015",
    "VSSEQ": 32.0,
    "VSTESTCD": "DIABP",
    "VSTEST": "Diastolic Blood Pressure",
    "VSPOS": "STANDING",
    "VSORRES": "68",
    "VSORRESU": "mmHg",
    "VSSTRESC": "68",
    "VSSTRESN": 68.0,
    "VSSTRESU": "mmHg",
    "VSSTAT": "",
    "VSLOC": "",
    "VSBLFL": "",
    "VISITNUM": 10.0,
    "VISIT": "WEEK 16",
    "VISITDY": 112.0,
    "VSDTC": "2014-05-07",
    "VSDY": 126.0,
    "VSTPT": "AFTER STANDING FOR 1 MINUTE",
    "VSTPTNUM": 816.0,
    "VSELTM": "PT1M",
    "VSTPTREF": "PATIENT STANDING"
  },
  {
    "STUDYID": "CDISCPILOT01",
    "DOMAIN": "VS",
    "USUBJID": "01-701-1015",
    "VSSEQ": 33.0,
    "VSTESTCD": "DIABP",
    "VSTEST": "Diastolic Blood Pressure",
    "VSPOS": "STANDING",
    "VSORRES": "66",
    "VSORRESU": "mmHg",
    "VSSTRESC": "66",
    "VSSTRESN": 66.0,
    "VSSTRESU": "mmHg",
    "VSSTAT": "",
    "VSLOC": "",
    "VSBLFL": "",
    "VISITNUM": 10.0,
    "VISIT": "WEEK 16",
    "VISITDY": 112.0,
    "VSDTC": "2014-05-07",
    "VSDY": 126.0,
    "VSTPT": "AFTER STANDING FOR 3 MINUTES",
    "VSTPTNUM": 817.0,
    "VSELTM": "PT3M",
    "VSTPTREF": "PATIENT STANDING"
  },
  {
    "STUDYID": "CDISCPILOT01",
    "DOMAIN": "VS",
    "USUBJID": "01-701-1015",
    "VSSEQ": 34.0,
    "VSTESTCD": "DIABP",
    "VSTEST": "Diastolic Blood Pressure",
    "VSPOS": "SUPINE",
    "VSORRES": "67",
    "VSORRESU": "mmHg",
    "VSSTRESC": "67",
    "VSSTRESN": 67.0,
    "VSSTRESU": "mmHg",
    "VSSTAT": "",
    "VSLOC": "",
    "VSBLFL": "",
    "VISITNUM": 11.0,
    "VISIT": "WEEK 20",
    "VISITDY": 140.0,
    "VSDTC": "2014-05-21",
    "VSDY": 140.0,
    "VSTPT": "AFTER LYING DOWN FOR 5 MINUTES",
    "VSTPTNUM": 815.0,
    "VSELTM": "PT5M",
    "VSTPTREF": "PATIENT SUPINE"
  },
  {
    "STUDYID": "CDISCPILOT01",
    "DOMAIN": "VS",
    "USUBJID": "01-701-1015",
    "VSSEQ": 35.0,
    "VSTESTCD": "DIABP",
    "VSTEST": "Diastolic Blood Pressure",
    "VSPOS": "STANDING",
    "VSORRES": "65",
    "VSORRESU": "mmHg",
    "VSSTRESC": "65",
    "VSSTRESN": 65.0,
    "VSSTRESU": "mmHg",
    "VSSTAT": "",
    "VSLOC": "",
    "VSBLFL": "",
    "VISITNUM": 11.0,
    "VISIT": "WEEK 20",
    "VISITDY": 140.0,
    "VSDTC": "2014-05-21",
    "VSDY": 140.0,
    "VSTPT": "AFTER STANDING FOR 1 MINUTE",
    "VSTPTNUM": 816.0,
    "VSELTM": "PT1M",
    "VSTPTREF": "PATIENT STANDING"
  },
  {
    "STUDYID": "CDISCPILOT01",
    "DOMAIN": "VS",
    "USUBJID": "01-701-1015",
    "VSSEQ": 36.0,
    "VSTESTCD": "DIABP",
    "VSTEST": "Diastolic Blood Pressure",
    "VSPOS": "STANDING",
    "VSORRES": "63",
    "VSORRESU": "mmHg",
    "VSSTRESC": "63",
    "VSSTRESN": 63.0,
    "VSSTRESU": "mmHg",
    "VSSTAT": "",
    "VSLOC": "",
    "VSBLFL": "",
    "VISITNUM": 11.0,
    "VISIT": "WEEK 20",
    "VISITDY": 140.0,
    "VSDTC": "2014-05-21",
    "VSDY": 140.0,
    "VSTPT": "AFTER STANDING FOR 3 MINUTES",
    "VSTPTNUM": 817.0,
    "VSELTM": "PT3M",
    "VSTPTREF": "PATIENT STANDING"
  },
  {
    "STUDYID": "CDISCPILOT01",
    "DOMAIN": "VS",
    "USUBJID": "01-701-1015",
    "VSSEQ": 37.0,
    "VSTESTCD": "DIABP",
    "VSTEST": "Diastolic Blood Pressure",
    "VSPOS": "SUPINE",
    "VSORRES": "63",
    "VSORRESU": "mmHg",
    "VSSTRESC": "63",
    "VSSTRESN": 63.0,
    "VSSTRESU": "mmHg",
    "VSSTAT": "",
    "VSLOC": "",
    "VSBLFL": "",
    "VISITNUM": 12.0,
    "VISIT": "WEEK 24",
    "VISITDY": 168.0,
    "VSDTC": "2014-06-18",
    "VSDY": 168.0,
    "VSTPT": "AFTER LYING DOWN FOR 5 MINUTES",
    "VSTPTNUM": 815.0,
    "VSELTM": "PT5M",
    "VSTPTREF": "PATIENT SUPINE"
  },
  {
    "STUDYID": "CDISCPILOT01",
    "DOMAIN": "VS",
    "USUBJID": "01-701-1015",
    "VSSEQ": 38.0,
    "VSTESTCD": "DIABP",
    "VSTEST": "Diastolic Blood Pressure",
    "VSPOS": "STANDING",
    "VSORRES": "57",
    "VSORRESU": "mmHg",
    "VSSTRESC": "57",
    "VSSTRESN": 57.0,
    "VSSTRESU": "mmHg",
    "VSSTAT": "",
    "VSLOC": "",
    "VSBLFL": "",
    "VISITNUM": 12.0,
    "VISIT": "WEEK 24",
    "VISITDY": 168.0,
    "VSDTC": "2014-06-18",
    "VSDY": 168.0,
    "VSTPT": "AFTER STANDING FOR 1 MINUTE",
    "VSTPTNUM": 816.0,
    "VSELTM": "PT1M",
    "VSTPTREF": "PATIENT STANDING"
  },
  {
    "STUDYID": "CDISCPILOT01",
    "DOMAIN": "VS",
    "USUBJID": "01-701-1015",
    "VSSEQ": 39.0,
    "VSTESTCD": "DIABP",
    "VSTEST": "Diastolic Blood Pressure",
    "VSPOS": "STANDING",
    "VSORRES": "71",
    "VSORRESU": "mmHg",
    "VSSTRESC": "71",
    "VSSTRESN": 71.0,
    "VSSTRESU": "mmHg",
    "VSSTAT": "",
    "VSLOC": "",
    "VSBLFL": "",
    "VISITNUM": 12.0,
    "VISIT": "WEEK 24",
    "VISITDY": 168.0,
    "VSDTC": "2014-06-18",
    "VSDY": 168.0,
    "VSTPT": "AFTER STANDING FOR 3 MINUTES",
    "VSTPTNUM": 817.0,
    "VSELTM": "PT3M",
    "VSTPTREF": "PATIENT STANDING"
  },
  {
    "STUDYID": "CDISCPILOT01",
    "DOMAIN": "VS",
    "USUBJID": "01-701-1015",
    "VSSEQ": 40.0,
    "VSTESTCD": "DIABP",
    "VSTEST": "Diastolic Blood Pressure",
    "VSPOS": "SUPINE",
    "VSORRES": "61",
    "VSORRESU": "mmHg",
    "VSSTRESC": "61",
    "VSSTRESN": 61.0,
    "VSSTRESU": "mmHg",
    "VSSTAT": "",
    "VSLOC": "",
    "VSBLFL": "",
    "VISITNUM": 13.0,
    "VISIT": "WEEK 26",
    "VISITDY": 182.0,
    "VSDTC": "2014-07-02",
    "VSDY": 182.0,
    "VSTPT": "AFTER LYING DOWN FOR 5 MINUTES",
    "VSTPTNUM": 815.0,
    "VSELTM": "PT5M",
    "VSTPTREF": "PATIENT SUPINE"
  },
  {
    "STUDYID": "CDISCPILOT01",
    "DOMAIN": "VS",
    "USUBJID": "01-701-1015",
    "VSSEQ": 41.0,
    "VSTESTCD": "DIABP",
    "VSTEST": "Diastolic Blood Pressure",
    "VSPOS": "STANDING",
    "VSORRES": "59",
    "VSORRESU": "mmHg",
    "VSSTRESC": "59",
    "VSSTRESN": 59.0,
    "VSSTRESU": "mmHg",
    "VSSTAT": "",
    "VSLOC": "",
    "VSBLFL": "",
    "VISITNUM": 13.0,
    "VISIT": "WEEK 26",
    "VISITDY": 182.0,
    "VSDTC": "2014-07-02",
    "VSDY": 182.0,
    "VSTPT": "AFTER STANDING FOR 1 MINUTE",
    "VSTPTNUM": 816.0,
    "VSELTM": "PT1M",
    "VSTPTREF": "PATIENT STANDING"
  },
  {
    "STUDYID": "CDISCPILOT01",
    "DOMAIN": "VS",
    "USUBJID": "01-701-1015",
    "VSSEQ": 42.0,
    "VSTESTCD": "DIABP",
    "VSTEST": "Diastolic Blood Pressure",
    "VSPOS": "STANDING",
    "VSORRES": "55",
    "VSORRESU": "mmHg",
    "VSSTRESC": "55",
    "VSSTRESN": 55.0,
    "VSSTRESU": "mmHg",
    "VSSTAT": "",
    "VSLOC": "",
    "VSBLFL": "",
    "VISITNUM": 13.0,
    "VISIT": "WEEK 26",
    "VISITDY": 182.0,
    "VSDTC": "2014-07-02",
    "VSDY": 182.0,
    "VSTPT": "AFTER STANDING FOR 3 MINUTES",
    "VSTPTNUM": 817.0,
    "VSELTM": "PT3M",
    "VSTPTREF": "PATIENT STANDING"
  },
  {
    "STUDYID": "CDISCPILOT01",
    "DOMAIN": "VS",
    "USUBJID": "01-701-1015",
    "VSSEQ": 43.0,
    "VSTESTCD": "HEIGHT",
    "VSTEST": "Height",
    "VSPOS": "",
    "VSORRES": "58.0",
    "VSORRESU": "IN",
    "VSSTRESC": "147.32",
    "VSSTRESN": 147.32,
    "VSSTRESU": "cm",
    "VSSTAT": "",
    "VSLOC": "",
    "VSBLFL": "",
    "VISITNUM": 1.0,
    "VISIT": "SCREENING 1",
    "VISITDY": -7.0,
    "VSDTC": "2013-12-26",
    "VSDY": -7.0,
    "VSTPT": "",
    "VSTPTNUM": "",
    "VSELTM": "",
    "VSTPTREF": ""
  },
  {
    "STUDYID": "CDISCPILOT01",
    "DOMAIN": "VS",
    "USUBJID": "01-701-1015",
    "VSSEQ": 44.0,
    "VSTESTCD": "PULSE",
    "VSTEST": "Pulse Rate",
    "VSPOS": "SUPINE",
    "VSORRES": "57",
    "VSORRESU": "BEATS/MIN",
    "VSSTRESC": "57",
    "VSSTRESN": 57.0,
    "VSSTRESU": "BEATS/MIN",
    "VSSTAT": "",
    "VSLOC": "",
    "VSBLFL": "",
    "VISITNUM": 1.0,
    "VISIT": "SCREENING 1",
    "VISITDY": -7.0,
    "VSDTC": "2013-12-26",
    "VSDY": -7.0,
    "VSTPT": "AFTER LYING DOWN FOR 5 MINUTES",
    "VSTPTNUM": 815.0,
    "VSELTM": "PT5M",
    "VSTPTREF": "PATIENT SUPINE"
  },
  {
    "STUDYID": "CDISCPILOT01",
    "DOMAIN": "VS",
    "USUBJID": "01-701-1015",
    "VSSEQ": 45.0,
    "VSTESTCD": "PULSE",
    "VSTEST": "Pulse Rate",
    "VSPOS": "STANDING",
    "VSORRES": "62",
    "VSORRESU": "BEATS/MIN",
    "VSSTRESC": "62",
    "VSSTRESN": 62.0,
    "VSSTRESU": "BEATS/MIN",
    "VSSTAT": "",
    "VSLOC": "",
    "VSBLFL": "",
    "VISITNUM": 1.0,
    "VISIT": "SCREENING 1",
    "VISITDY": -7.0,
    "VSDTC": "2013-12-26",
    "VSDY": -7.0,
    "VSTPT": "AFTER STANDING FOR 1 MINUTE",
    "VSTPTNUM": 816.0,
    "VSELTM": "PT1M",
    "VSTPTREF": "PATIENT STANDING"
  },
  {
    "STUDYID": "CDISCPILOT01",
    "DOMAIN": "VS",
    "USUBJID": "01-701-1015",
    "VSSEQ": 46.0,
    "VSTESTCD": "PULSE",
    "VSTEST": "Pulse Rate",
    "VSPOS": "STANDING",
    "VSORRES": "65",
    "VSORRESU": "BEATS/MIN",
    "VSSTRESC": "65",
    "VSSTRESN": 65.0,
    "VSSTRESU": "BEATS/MIN",
    "VSSTAT": "",
    "VSLOC": "",
    "VSBLFL": "",
    "VISITNUM": 1.0,
    "VISIT": "SCREENING 1",
    "VISITDY": -7.0,
    "VSDTC": "2013-12-26",
    "VSDY": -7.0,
    "VSTPT": "AFTER STANDING FOR 3 MINUTES",
    "VSTPTNUM": 817.0,
    "VSELTM": "PT3M",
    "VSTPTREF": "PATIENT STANDING"
  },
  {
    "STUDYID": "CDISCPILOT01",
    "DOMAIN": "VS",
    "USUBJID": "01-701-1015",
    "VSSEQ": 47.0,
    "VSTESTCD": "PULSE",
    "VSTEST": "Pulse Rate",
    "VSPOS": "SUPINE",
    "VSORRES": "56",
    "VSORRESU": "BEATS/MIN",
    "VSSTRESC": "56",
    "VSSTRESN": 56.0,
    "VSSTRESU": "BEATS/MIN",
    "VSSTAT": "",
    "VSLOC": "",
    "VSBLFL": "",
    "VISITNUM": 2.0,
    "VISIT": "SCREENING 2",
    "VISITDY": -1.0,
    "VSDTC": "2013-12-31",
    "VSDY": -2.0,
    "VSTPT": "AFTER LYING DOWN FOR 5 MINUTES",
    "VSTPTNUM": 815.0,
    "VSELTM": "PT5M",
    "VSTPTREF": "PATIENT SUPINE"
  },
  {
    "STUDYID": "CDISCPILOT01",
    "DOMAIN": "VS",
    "USUBJID": "01-701-1015",
    "VSSEQ": 48.0,
    "VSTESTCD": "PULSE",
    "VSTEST": "Pulse Rate",
    "VSPOS": "STANDING",
    "VSORRES": "60",
    "VSORRESU": "BEATS/MIN",
    "VSSTRESC": "60",
    "VSSTRESN": 60.0,
    "VSSTRESU": "BEATS/MIN",
    "VSSTAT": "",
    "VSLOC": "",
    "VSBLFL": "",
    "VISITNUM": 2.0,
    "VISIT": "SCREENING 2",
    "VISITDY": -1.0,
    "VSDTC": "2013-12-31",
    "VSDY": -2.0,
    "VSTPT": "AFTER STANDING FOR 1 MINUTE",
    "VSTPTNUM": 816.0,
    "VSELTM": "PT1M",
    "VSTPTREF": "PATIENT STANDING"
  },
  {
    "STUDYID": "CDISCPILOT01",
    "DOMAIN": "VS",
    "USUBJID": "01-701-1015",
    "VSSEQ": 49.0,
    "VSTESTCD": "PULSE",
    "VSTEST": "Pulse Rate",
    "VSPOS": "STANDING",
    "VSORRES": "57",
    "VSORRESU": "BEATS/MIN",
    "VSSTRESC": "57",
    "VSSTRESN": 57.0,
    "VSSTRESU": "BEATS/MIN",
    "VSSTAT": "",
    "VSLOC": "",
    "VSBLFL": "",
    "VISITNUM": 2.0,
    "VISIT": "SCREENING 2",
    "VISITDY": -1.0,
    "VSDTC": "2013-12-31",
    "VSDY": -2.0,
    "VSTPT": "AFTER STANDING FOR 3 MINUTES",
    "VSTPTNUM": 817.0,
    "VSELTM": "PT3M",
    "VSTPTREF": "PATIENT STANDING"
  },
  {
    "STUDYID": "CDISCPILOT01",
    "DOMAIN": "VS",
    "USUBJID": "01-701-1015",
    "VSSEQ": 50.0,
    "VSTESTCD": "PULSE",
    "VSTEST": "Pulse Rate",
    "VSPOS": "SUPINE",
    "VSORRES": "56",
    "VSORRESU": "BEATS/MIN",
    "VSSTRESC": "56",
    "VSSTRESN": 56.0,
    "VSSTRESU": "BEATS/MIN",
    "VSSTAT": "",
    "VSLOC": "",
    "VSBLFL": "Y",
    "VISITNUM": 3.0,
    "VISIT": "BASELINE",
    "VISITDY": 1.0,
    "VSDTC": "2014-01-02",
    "VSDY": 1.0,
    "VSTPT": "AFTER LYING DOWN FOR 5 MINUTES",
    "VSTPTNUM": 815.0,
    "VSELTM": "PT5M",
    "VSTPTREF": "PATIENT SUPINE"
  },
  {
    "STUDYID": "CDISCPILOT01",
    "DOMAIN": "VS",
    "USUBJID": "01-701-1015",
    "VSSEQ": 51.0,
    "VSTESTCD": "PULSE",
    "VSTEST": "Pulse Rate",
    "VSPOS": "STANDING",
    "VSORRES": "59",
    "VSORRESU": "BEATS/MIN",
    "VSSTRESC": "59",
    "VSSTRESN": 59.0,
    "VSSTRESU": "BEATS/MIN",
    "VSSTAT": "",
    "VSLOC": "",
    "VSBLFL": "Y",
    "VISITNUM": 3.0,
    "VISIT": "BASELINE",
    "VISITDY": 1.0,
    "VSDTC": "2014-01-02",
    "VSDY": 1.0,
    "VSTPT": "AFTER STANDING FOR 1 MINUTE",
    "VSTPTNUM": 816.0,
    "VSELTM": "PT1M",
    "VSTPTREF": "PATIENT STANDING"
  },
  {
    "STUDYID": "CDISCPILOT01",
    "DOMAIN": "VS",
    "USUBJID": "01-701-1015",
    "VSSEQ": 52.0,
    "VSTESTCD": "PULSE",
    "VSTEST": "Pulse Rate",
    "VSPOS": "STANDING",
    "VSORRES": "59",
    "VSORRESU": "BEATS/MIN",
    "VSSTRESC": "59",
    "VSSTRESN": 59.0,
    "VSSTRESU": "BEATS/MIN",
    "VSSTAT": "",
    "VSLOC": "",
    "VSBLFL": "Y",
    "VISITNUM": 3.0,
    "VISIT": "BASELINE",
    "VISITDY": 1.0,
    "VSDTC": "2014-01-02",
    "VSDY": 1.0,
    "VSTPT": "AFTER STANDING FOR 3 MINUTES",
    "VSTPTNUM": 817.0,
    "VSELTM": "PT3M",
    "VSTPTREF": "PATIENT STANDING"
  },
  {
    "STUDYID": "CDISCPILOT01",
    "DOMAIN": "VS",
    "USUBJID": "01-701-1015",
    "VSSEQ": 53.0,
    "VSTESTCD": "PULSE",
    "VSTEST": "Pulse Rate",
    "VSPOS": "SUPINE",
    "VSORRES": "61",
    "VSORRESU": "BEATS/MIN",
    "VSSTRESC": "61",
    "VSSTRESN": 61.0,
    "VSSTRESU": "BEATS/MIN",
    "VSSTAT": "",
    "VSLOC": "",
    "VSBLFL": "",
    "VISITNUM": 3.5,
    "VISIT": "AMBUL ECG PLACEMENT",
    "VISITDY": 13.0,
    "VSDTC": "2014-01-14",
    "VSDY": 13.0,
    "VSTPT": "AFTER LYING DOWN FOR 5 MINUTES",
    "VSTPTNUM": 815.0,
    "VSELTM": "PT5M",
    "VSTPTREF": "PATIENT SUPINE"
  },
  {
    "STUDYID": "CDISCPILOT01",
    "DOMAIN": "VS",
    "USUBJID": "01-701-1015",
    "VSSEQ": 54.0,
    "VSTESTCD": "PULSE",
    "VSTEST": "Pulse Rate",
    "VSPOS": "STANDING",
    "VSORRES": "65",
    "VSORRESU": "BEATS/MIN",
    "VSSTRESC": "65",
    "VSSTRESN": 65.0,
    "VSSTRESU": "BEATS/MIN",
    "VSSTAT": "",
    "VSLOC": "",
    "VSBLFL": "",
    "VISITNUM": 3.5,
    "VISIT": "AMBUL ECG PLACEMENT",
    "VISITDY": 13.0,
    "VSDTC": "2014-01-14",
    "VSDY": 13.0,
    "VSTPT": "AFTER STANDING FOR 1 MINUTE",
    "VSTPTNUM": 816.0,
    "VSELTM": "PT1M",
    "VSTPTREF": "PATIENT STANDING"
  },
  {
    "STUDYID": "CDISCPILOT01",
    "DOMAIN": "VS",
    "USUBJID": "01-701-1015",
    "VSSEQ": 55.0,
    "VSTESTCD": "PULSE",
    "VSTEST": "Pulse Rate",
    "VSPOS": "STANDING",
    "VSORRES": "61",
    "VSORRESU": "BEATS/MIN",
    "VSSTRESC": "61",
    "VSSTRESN": 61.0,
    "VSSTRESU": "BEATS/MIN",
    "VSSTAT": "",
    "VSLOC": "",
    "VSBLFL": "",
    "VISITNUM": 3.5,
    "VISIT": "AMBUL ECG PLACEMENT",
    "VISITDY": 13.0,
    "VSDTC": "2014-01-14",
    "VSDY": 13.0,
    "VSTPT": "AFTER STANDING FOR 3 MINUTES",
    "VSTPTNUM": 817.0,
    "VSELTM": "PT3M",
    "VSTPTREF": "PATIENT STANDING"
  },
  {
    "STUDYID": "CDISCPILOT01",
    "DOMAIN": "VS",
    "USUBJID": "01-701-1015",
    "VSSEQ": 56.0,
    "VSTESTCD": "PULSE",
    "VSTEST": "Pulse Rate",
    "VSPOS": "SUPINE",
    "VSORRES": "58",
    "VSORRESU": "BEATS/MIN",
    "VSSTRESC": "58",
    "VSSTRESN": 58.0,
    "VSSTRESU": "BEATS/MIN",
    "VSSTAT": "",
    "VSLOC": "",
    "VSBLFL": "",
    "VISITNUM": 4.0,
    "VISIT": "WEEK 2",
    "VISITDY": 14.0,
    "VSDTC": "2014-01-16",
    "VSDY": 15.0,
    "VSTPT": "AFTER LYING DOWN FOR 5 MINUTES",
    "VSTPTNUM": 815.0,
    "VSELTM": "PT5M",
    "VSTPTREF": "PATIENT SUPINE"
  },
  {
    "STUDYID": "CDISCPILOT01",
    "DOMAIN": "VS",
    "USUBJID": "01-701-1015",
    "VSSEQ": 57.0,
    "VSTESTCD": "PULSE",
    "VSTEST": "Pulse Rate",
    "VSPOS": "STANDING",
    "VSORRES": "61",
    "VSORRESU": "BEATS/MIN",
    "VSSTRESC": "61",
    "VSSTRESN": 61.0,
    "VSSTRESU": "BEATS/MIN",
    "VSSTAT": "",
    "VSLOC": "",
    "VSBLFL": "",
    "VISITNUM": 4.0,
    "VISIT": "WEEK 2",
    "VISITDY": 14.0,
    "VSDTC": "2014-01-16",
    "VSDY": 15.0,
    "VSTPT": "AFTER STANDING FOR 1 MINUTE",
    "VSTPTNUM": 816.0,
    "VSELTM": "PT1M",
    "VSTPTREF": "PATIENT STANDING"
  },
  {
    "STUDYID": "CDISCPILOT01",
    "DOMAIN": "VS",
    "USUBJID": "01-701-1015",
    "VSSEQ": 58.0,
    "VSTESTCD": "PULSE",
    "VSTEST": "Pulse Rate",
    "VSPOS": "STANDING",
    "VSORRES": "62",
    "VSORRESU": "BEATS/MIN",
    "VSSTRESC": "62",
    "VSSTRESN": 62.0,
    "VSSTRESU": "BEATS/MIN",
    "VSSTAT": "",
    "VSLOC": "",
    "VSBLFL": "",
    "VISITNUM": 4.0,
    "VISIT": "WEEK 2",
    "VISITDY": 14.0,
    "VSDTC": "2014-01-16",
    "VSDY": 15.0,
    "VSTPT": "AFTER STANDING FOR 3 MINUTES",
    "VSTPTNUM": 817.0,
    "VSELTM": "PT3M",
    "VSTPTREF": "PATIENT STANDING"
  },
  {
    "STUDYID": "CDISCPILOT01",
    "DOMAIN": "VS",
    "USUBJID": "01-701-1015",
    "VSSEQ": 59.0,
    "VSTESTCD": "PULSE",
    "VSTEST": "Pulse Rate",
    "VSPOS": "SUPINE",
    "VSORRES": "59",
    "VSORRESU": "BEATS/MIN",
    "VSSTRESC": "59",
    "VSSTRESN": 59.0,
    "VSSTRESU": "BEATS/MIN",
    "VSSTAT": "",
    "VSLOC": "",
    "VSBLFL": "",
    "VISITNUM": 5.0,
    "VISIT": "WEEK 4",
    "VISITDY": 28.0,
    "VSDTC": "2014-01-30",
    "VSDY": 29.0,
    "VSTPT": "AFTER LYING DOWN FOR 5 MINUTES",
    "VSTPTNUM": 815.0,
    "VSELTM": "PT5M",
    "VSTPTREF": "PATIENT SUPINE"
  },
  {
    "STUDYID": "CDISCPILOT01",
    "DOMAIN": "VS",
    "USUBJID": "01-701-1015",
    "VSSEQ": 60.0,
    "VSTESTCD": "PULSE",
    "VSTEST": "Pulse Rate",
    "VSPOS": "STANDING",
    "VSORRES": "62",
    "VSORRESU": "BEATS/MIN",
    "VSSTRESC": "62",
    "VSSTRESN": 62.0,
    "VSSTRESU": "BEATS/MIN",
    "VSSTAT": "",
    "VSLOC": "",
    "VSBLFL": "",
    "VISITNUM": 5.0,
    "VISIT": "WEEK 4",
    "VISITDY": 28.0,
    "VSDTC": "2014-01-30",
    "VSDY": 29.0,
    "VSTPT": "AFTER STANDING FOR 1 MINUTE",
    "VSTPTNUM": 816.0,
    "VSELTM": "PT1M",
    "VSTPTREF": "PATIENT STANDING"
  },
  {
    "STUDYID": "CDISCPILOT01",
    "DOMAIN": "VS",
    "USUBJID": "01-701-1015",
    "VSSEQ": 61.0,
    "VSTESTCD": "PULSE",
    "VSTEST": "Pulse Rate",
    "VSPOS": "STANDING",
    "VSORRES": "59",
    "VSORRESU": "BEATS/MIN",
    "VSSTRESC": "59",
    "VSSTRESN": 59.0,
    "VSSTRESU": "BEATS/MIN",
    "VSSTAT": "",
    "VSLOC": "",
    "VSBLFL": "",
    "VISITNUM": 5.0,
    "VISIT": "WEEK 4",
    "VISITDY": 28.0,
    "VSDTC": "2014-01-30",
    "VSDY": 29.0,
    "VSTPT": "AFTER STANDING FOR 3 MINUTES",
    "VSTPTNUM": 817.0,
    "VSELTM": "PT3M",
    "VSTPTREF": "PATIENT STANDING"
  },
  {
    "STUDYID": "CDISCPILOT01",
    "DOMAIN": "VS",
    "USUBJID": "01-701-1015",
    "VSSEQ": 62.0,
    "VSTESTCD": "PULSE",
    "VSTEST": "Pulse Rate",
    "VSPOS": "SUPINE",
    "VSORRES": "67",
    "VSORRESU": "BEATS/MIN",
    "VSSTRESC": "67",
    "VSSTRESN": 67.0,
    "VSSTRESU": "BEATS/MIN",
    "VSSTAT": "",
    "VSLOC": "",
    "VSBLFL": "",
    "VISITNUM": 6.0,
    "VISIT": "AMBUL ECG REMOVAL",
    "VISITDY": 30.0,
    "VSDTC": "2014-02-01",
    "VSDY": 31.0,
    "VSTPT": "AFTER LYING DOWN FOR 5 MINUTES",
    "VSTPTNUM": 815.0,
    "VSELTM": "PT5M",
    "VSTPTREF": "PATIENT SUPINE"
  },
  {
    "STUDYID": "CDISCPILOT01",
    "DOMAIN": "VS",
    "USUBJID": "01-701-1015",
    "VSSEQ": 63.0,
    "VSTESTCD": "PULSE",
    "VSTEST": "Pulse Rate",
    "VSPOS": "STANDING",
    "VSORRES": "69",
    "VSORRESU": "BEATS/MIN",
    "VSSTRESC": "69",
    "VSSTRESN": 69.0,
    "VSSTRESU": "BEATS/MIN",
    "VSSTAT": "",
    "VSLOC": "",
    "VSBLFL": "",
    "VISITNUM": 6.0,
    "VISIT": "AMBUL ECG REMOVAL",
    "VISITDY": 30.0,
    "VSDTC": "2014-02-01",
    "VSDY": 31.0,
    "VSTPT": "AFTER STANDING FOR 1 MINUTE",
    "VSTPTNUM": 816.0,
    "VSELTM": "PT1M",
    "VSTPTREF": "PATIENT STANDING"
  },
  {
    "STUDYID": "CDISCPILOT01",
    "DOMAIN": "VS",
    "USUBJID": "01-701-1015",
    "VSSEQ": 64.0,
    "VSTESTCD": "PULSE",
    "VSTEST": "Pulse Rate",
    "VSPOS": "STANDING",
    "VSORRES": "65",
    "VSORRESU": "BEATS/MIN",
    "VSSTRESC": "65",
    "VSSTRESN": 65.0,
    "VSSTRESU": "BEATS/MIN",
    "VSSTAT": "",
    "VSLOC": "",
    "VSBLFL": "",
    "VISITNUM": 6.0,
    "VISIT": "AMBUL ECG REMOVAL",
    "VISITDY": 30.0,
    "VSDTC": "2014-02-01",
    "VSDY": 31.0,
    "VSTPT": "AFTER STANDING FOR 3 MINUTES",
    "VSTPTNUM": 817.0,
    "VSELTM": "PT3M",
    "VSTPTREF": "PATIENT STANDING"
  },
  {
    "STUDYID": "CDISCPILOT01",
    "DOMAIN": "VS",
    "USUBJID": "01-701-1015",
    "VSSEQ": 65.0,
    "VSTESTCD": "PULSE",
    "VSTEST": "Pulse Rate",
    "VSPOS": "SUPINE",
    "VSORRES": "55",
    "VSORRESU": "BEATS/MIN",
    "VSSTRESC": "55",
    "VSSTRESN": 55.0,
    "VSSTRESU": "BEATS/MIN",
    "VSSTAT": "",
    "VSLOC": "",
    "VSBLFL": "",
    "VISITNUM": 7.0,
    "VISIT": "WEEK 6",
    "VISITDY": 42.0,
    "VSDTC": "2014-02-12",
    "VSDY": 42.0,
    "VSTPT": "AFTER LYING DOWN FOR 5 MINUTES",
    "VSTPTNUM": 815.0,
    "VSELTM": "PT5M",
    "VSTPTREF": "PATIENT SUPINE"
  },
  {
    "STUDYID": "CDISCPILOT01",
    "DOMAIN": "VS",
    "USUBJID": "01-701-1015",
    "VSSEQ": 66.0,
    "VSTESTCD": "PULSE",
    "VSTEST": "Pulse Rate",
    "VSPOS": "STANDING",
    "VSORRES": "56",
    "VSORRESU": "BEATS/MIN",
    "VSSTRESC": "56",
    "VSSTRESN": 56.0,
    "VSSTRESU": "BEATS/MIN",
    "VSSTAT": "",
    "VSLOC": "",
    "VSBLFL": "",
    "VISITNUM": 7.0,
    "VISIT": "WEEK 6",
    "VISITDY": 42.0,
    "VSDTC": "2014-02-12",
    "VSDY": 42.0,
    "VSTPT": "AFTER STANDING FOR 1 MINUTE",
    "VSTPTNUM": 816.0,
    "VSELTM": "PT1M",
    "VSTPTREF": "PATIENT STANDING"
  },
  {
    "STUDYID": "CDISCPILOT01",
    "DOMAIN": "VS",
    "USUBJID": "01-701-1015",
    "VSSEQ": 67.0,
    "VSTESTCD": "PULSE",
    "VSTEST": "Pulse Rate",
    "VSPOS": "STANDING",
    "VSORRES": "57",
    "VSORRESU": "BEATS/MIN",
    "VSSTRESC": "57",
    "VSSTRESN": 57.0,
    "VSSTRESU": "BEATS/MIN",
    "VSSTAT": "",
    "VSLOC": "",
    "VSBLFL": "",
    "VISITNUM": 7.0,
    "VISIT": "WEEK 6",
    "VISITDY": 42.0,
    "VSDTC": "2014-02-12",
    "VSDY": 42.0,
    "VSTPT": "AFTER STANDING FOR 3 MINUTES",
    "VSTPTNUM": 817.0,
    "VSELTM": "PT3M",
    "VSTPTREF": "PATIENT STANDING"
  },
  {
    "STUDYID": "CDISCPILOT01",
    "DOMAIN": "VS",
    "USUBJID": "01-701-1015",
    "VSSEQ": 68.0,
    "VSTESTCD": "PULSE",
    "VSTEST": "Pulse Rate",
    "VSPOS": "SUPINE",
    "VSORRES": "57",
    "VSORRESU": "BEATS/MIN",
    "VSSTRESC": "57",
    "VSSTRESN": 57.0,
    "VSSTRESU": "BEATS/MIN",
    "VSSTAT": "",
    "VSLOC": "",
    "VSBLFL": "",
    "VISITNUM": 8.0,
    "VISIT": "WEEK 8",
    "VISITDY": 56.0,
    "VSDTC": "2014-03-05",
    "VSDY": 63.0,
    "VSTPT": "AFTER LYING DOWN FOR 5 MINUTES",
    "VSTPTNUM": 815.0,
    "VSELTM": "PT5M",
    "VSTPTREF": "PATIENT SUPINE"
  },
  {
    "STUDYID": "CDISCPILOT01",
    "DOMAIN": "VS",
    "USUBJID": "01-701-1015",
    "VSSEQ": 69.0,
    "VSTESTCD": "PULSE",
    "VSTEST": "Pulse Rate",
    "VSPOS": "STANDING",
    "VSORRES": "60",
    "VSORRESU": "BEATS/MIN",
    "VSSTRESC": "60",
    "VSSTRESN": 60.0,
    "VSSTRESU": "BEATS/MIN",
    "VSSTAT": "",
    "VSLOC": "",
    "VSBLFL": "",
    "VISITNUM": 8.0,
    "VISIT": "WEEK 8",
    "VISITDY": 56.0,
    "VSDTC": "2014-03-05",
    "VSDY": 63.0,
    "VSTPT": "AFTER STANDING FOR 1 MINUTE",
    "VSTPTNUM": 816.0,
    "VSELTM": "PT1M",
    "VSTPTREF": "PATIENT STANDING"
  },
  {
    "STUDYID": "CDISCPILOT01",
    "DOMAIN": "VS",
    "USUBJID": "01-701-1015",
    "VSSEQ": 70.0,
    "VSTESTCD": "PULSE",
    "VSTEST": "Pulse Rate",
    "VSPOS": "STANDING",
    "VSORRES": "57",
    "VSORRESU": "BEATS/MIN",
    "VSSTRESC": "57",
    "VSSTRESN": 57.0,
    "VSSTRESU": "BEATS/MIN",
    "VSSTAT": "",
    "VSLOC": "",
    "VSBLFL": "",
    "VISITNUM": 8.0,
    "VISIT": "WEEK 8",
    "VISITDY": 56.0,
    "VSDTC": "2014-03-05",
    "VSDY": 63.0,
    "VSTPT": "AFTER STANDING FOR 3 MINUTES",
    "VSTPTNUM": 817.0,
    "VSELTM": "PT3M",
    "VSTPTREF": "PATIENT STANDING"
  },
  {
    "STUDYID": "CDISCPILOT01",
    "DOMAIN": "VS",
    "USUBJID": "01-701-1015",
    "VSSEQ": 71.0,
    "VSTESTCD": "PULSE",
    "VSTEST": "Pulse Rate",
    "VSPOS": "SUPINE",
    "VSORRES": "54",
    "VSORRESU": "BEATS/MIN",
    "VSSTRESC": "54",
    "VSSTRESN": 54.0,
    "VSSTRESU": "BEATS/MIN",
    "VSSTAT": "",
    "VSLOC": "",
    "VSBLFL": "",
    "VISITNUM": 9.0,
    "VISIT": "WEEK 12",
    "VISITDY": 84.0,
    "VSDTC": "2014-03-26",
    "VSDY": 84.0,
    "VSTPT": "AFTER LYING DOWN FOR 5 MINUTES",
    "VSTPTNUM": 815.0,
    "VSELTM": "PT5M",
    "VSTPTREF": "PATIENT SUPINE"
  },
  {
    "STUDYID": "CDISCPILOT01",
    "DOMAIN": "VS",
    "USUBJID": "01-701-1015",
    "VSSEQ": 72.0,
    "VSTESTCD": "PULSE",
    "VSTEST": "Pulse Rate",
    "VSPOS": "STANDING",
    "VSORRES": "53",
    "VSORRESU": "BEATS/MIN",
    "VSSTRESC": "53",
    "VSSTRESN": 53.0,
    "VSSTRESU": "BEATS/MIN",
    "VSSTAT": "",
    "VSLOC": "",
    "VSBLFL": "",
    "VISITNUM": 9.0,
    "VISIT": "WEEK 12",
    "VISITDY": 84.0,
    "VSDTC": "2014-03-26",
    "VSDY": 84.0,
    "VSTPT": "AFTER STANDING FOR 1 MINUTE",
    "VSTPTNUM": 816.0,
    "VSELTM": "PT1M",
    "VSTPTREF": "PATIENT STANDING"
  },
  {
    "STUDYID": "CDISCPILOT01",
    "DOMAIN": "VS",
    "USUBJID": "01-701-1015",
    "VSSEQ": 73.0,
    "VSTESTCD": "PULSE",
    "VSTEST": "Pulse Rate",
    "VSPOS": "STANDING",
    "VSORRES": "52",
    "VSORRESU": "BEATS/MIN",
    "VSSTRESC": "52",
    "VSSTRESN": 52.0,
    "VSSTRESU": "BEATS/MIN",
    "VSSTAT": "",
    "VSLOC": "",
    "VSBLFL": "",
    "VISITNUM": 9.0,
    "VISIT": "WEEK 12",
    "VISITDY": 84.0,
    "VSDTC": "2014-03-26",
    "VSDY": 84.0,
    "VSTPT": "AFTER STANDING FOR 3 MINUTES",
    "VSTPTNUM": 817.0,
    "VSELTM": "PT3M",
    "VSTPTREF": "PATIENT STANDING"
  },
  {
    "STUDYID": "CDISCPILOT01",
    "DOMAIN": "VS",
    "USUBJID": "01-701-1015",
    "VSSEQ": 74.0,
    "VSTESTCD": "PULSE",
    "VSTEST": "Pulse Rate",
    "VSPOS": "SUPINE",
    "VSORRES": "60",
    "VSORRESU": "BEATS/MIN",
    "VSSTRESC": "60",
    "VSSTRESN": 60.0,
    "VSSTRESU": "BEATS/MIN",
    "VSSTAT": "",
    "VSLOC": "",
    "VSBLFL": "",
    "VISITNUM": 10.0,
    "VISIT": "WEEK 16",
    "VISITDY": 112.0,
    "VSDTC": "2014-05-07",
    "VSDY": 126.0,
    "VSTPT": "AFTER LYING DOWN FOR 5 MINUTES",
    "VSTPTNUM": 815.0,
    "VSELTM": "PT5M",
    "VSTPTREF": "PATIENT SUPINE"
  },
  {
    "STUDYID": "CDISCPILOT01",
    "DOMAIN": "VS",
    "USUBJID": "01-701-1015",
    "VSSEQ": 75.0,
    "VSTESTCD": "PULSE",
    "VSTEST": "Pulse Rate",
    "VSPOS": "STANDING",
    "VSORRES": "55",
    "VSORRESU": "BEATS/MIN",
    "VSSTRESC": "55",
    "VSSTRESN": 55.0,
    "VSSTRESU": "BEATS/MIN",
    "VSSTAT": "",
    "VSLOC": "",
    "VSBLFL": "",
    "VISITNUM": 10.0,
    "VISIT": "WEEK 16",
    "VISITDY": 112.0,
    "VSDTC": "2014-05-07",
    "VSDY": 126.0,
    "VSTPT": "AFTER STANDING FOR 1 MINUTE",
    "VSTPTNUM": 816.0,
    "VSELTM": "PT1M",
    "VSTPTREF": "PATIENT STANDING"
  },
  {
    "STUDYID": "CDISCPILOT01",
    "DOMAIN": "VS",
    "USUBJID": "01-701-1015",
    "VSSEQ": 76.0,
    "VSTESTCD": "PULSE",
    "VSTEST": "Pulse Rate",
    "VSPOS": "STANDING",
    "VSORRES": "61",
    "VSORRESU": "BEATS/MIN",
    "VSSTRESC": "61",
    "VSSTRESN": 61.0,
    "VSSTRESU": "BEATS/MIN",
    "VSSTAT": "",
    "VSLOC": "",
    "VSBLFL": "",
    "VISITNUM": 10.0,
    "VISIT": "WEEK 16",
    "VISITDY": 112.0,
    "VSDTC": "2014-05-07",
    "VSDY": 126.0,
    "VSTPT": "AFTER STANDING FOR 3 MINUTES",
    "VSTPTNUM": 817.0,
    "VSELTM": "PT3M",
    "VSTPTREF": "PATIENT STANDING"
  },
  {
    "STUDYID": "CDISCPILOT01",
    "DOMAIN": "VS",
    "USUBJID": "01-701-1015",
    "VSSEQ": 77.0,
    "VSTESTCD": "PULSE",
    "VSTEST": "Pulse Rate",
    "VSPOS": "SUPINE",
    "VSORRES": "54",
    "VSORRESU": "BEATS/MIN",
    "VSSTRESC": "54",
    "VSSTRESN": 54.0,
    "VSSTRESU": "BEATS/MIN",
    "VSSTAT": "",
    "VSLOC": "",
    "VSBLFL": "",
    "VISITNUM": 11.0,
    "VISIT": "WEEK 20",
    "VISITDY": 140.0,
    "VSDTC": "2014-05-21",
    "VSDY": 140.0,
    "VSTPT": "AFTER LYING DOWN FOR 5 MINUTES",
    "VSTPTNUM": 815.0,
    "VSELTM": "PT5M",
    "VSTPTREF": "PATIENT SUPINE"
  },
  {
    "STUDYID": "CDISCPILOT01",
    "DOMAIN": "VS",
    "USUBJID": "01-701-1015",
    "VSSEQ": 78.0,
    "VSTESTCD": "PULSE",
    "VSTEST": "Pulse Rate",
    "VSPOS": "STANDING",
    "VSORRES": "59",
    "VSORRESU": "BEATS/MIN",
    "VSSTRESC": "59",
    "VSSTRESN": 59.0,
    "VSSTRESU": "BEATS/MIN",
    "VSSTAT": "",
    "VSLOC": "",
    "VSBLFL": "",
    "VISITNUM": 11.0,
    "VISIT": "WEEK 20",
    "VISITDY": 140.0,
    "VSDTC": "2014-05-21",
    "VSDY": 140.0,
    "VSTPT": "AFTER STANDING FOR 1 MINUTE",
    "VSTPTNUM": 816.0,
    "VSELTM": "PT1M",
    "VSTPTREF": "PATIENT STANDING"
  },
  {
    "STUDYID": "CDISCPILOT01",
    "DOMAIN": "VS",
    "USUBJID": "01-701-1015",
    "VSSEQ": 79.0,
    "VSTESTCD": "PULSE",
    "VSTEST": "Pulse Rate",
    "VSPOS": "STANDING",
    "VSORRES": "58",
    "VSORRESU": "BEATS/MIN",
    "VSSTRESC": "58",
    "VSSTRESN": 58.0,
    "VSSTRESU": "BEATS/MIN",
    "VSSTAT": "",
    "VSLOC": "",
    "VSBLFL": "",
    "VISITNUM": 11.0,
    "VISIT": "WEEK 20",
    "VISITDY": 140.0,
    "VSDTC": "2014-05-21",
    "VSDY": 140.0,
    "VSTPT": "AFTER STANDING FOR 3 MINUTES",
    "VSTPTNUM": 817.0,
    "VSELTM": "PT3M",
    "VSTPTREF": "PATIENT STANDING"
  },
  {
    "STUDYID": "CDISCPILOT01",
    "DOMAIN": "VS",
    "USUBJID": "01-701-1015",
    "VSSEQ": 80.0,
    "VSTESTCD": "PULSE",
    "VSTEST": "Pulse Rate",
    "VSPOS": "SUPINE",
    "VSORRES": "55",
    "VSORRESU": "BEATS/MIN",
    "VSSTRESC": "55",
    "VSSTRESN": 55.0,
    "VSSTRESU": "BEATS/MIN",
    "VSSTAT": "",
    "VSLOC": "",
    "VSBLFL": "",
    "VISITNUM": 12.0,
    "VISIT": "WEEK 24",
    "VISITDY": 168.0,
    "VSDTC": "2014-06-18",
    "VSDY": 168.0,
    "VSTPT": "AFTER LYING DOWN FOR 5 MINUTES",
    "VSTPTNUM": 815.0,
    "VSELTM": "PT5M",
    "VSTPTREF": "PATIENT SUPINE"
  },
  {
    "STUDYID": "CDISCPILOT01",
    "DOMAIN": "VS",
    "USUBJID": "01-701-1015",
    "VSSEQ": 81.0,
    "VSTESTCD": "PULSE",
    "VSTEST": "Pulse Rate",
    "VSPOS": "STANDING",
    "VSORRES": "57",
    "VSORRESU": "BEATS/MIN",
    "VSSTRESC": "57",
    "VSSTRESN": 57.0,
    "VSSTRESU": "BEATS/MIN",
    "VSSTAT": "",
    "VSLOC": "",
    "VSBLFL": "",
    "VISITNUM": 12.0,
    "VISIT": "WEEK 24",
    "VISITDY": 168.0,
    "VSDTC": "2014-06-18",
    "VSDY": 168.0,
    "VSTPT": "AFTER STANDING FOR 1 MINUTE",
    "VSTPTNUM": 816.0,
    "VSELTM": "PT1M",
    "VSTPTREF": "PATIENT STANDING"
  },
  {
    "STUDYID": "CDISCPILOT01",
    "DOMAIN": "VS",
    "USUBJID": "01-701-1015",
    "VSSEQ": 82.0,
    "VSTESTCD": "PULSE",
    "VSTEST": "Pulse Rate",
    "VSPOS": "STANDING",
    "VSORRES": "56",
    "VSORRESU": "BEATS/MIN",
    "VSSTRESC": "56",
    "VSSTRESN": 56.0,
    "VSSTRESU": "BEATS/MIN",
    "VSSTAT": "",
    "VSLOC": "",
    "VSBLFL": "",
    "VISITNUM": 12.0,
    "VISIT": "WEEK 24",
    "VISITDY": 168.0,
    "VSDTC": "2014-06-18",
    "VSDY": 168.0,
    "VSTPT": "AFTER STANDING FOR 3 MINUTES",
    "VSTPTNUM": 817.0,
    "VSELTM": "PT3M",
    "VSTPTREF": "PATIENT STANDING"
  },
  {
    "STUDYID": "CDISCPILOT01",
    "DOMAIN": "VS",
    "USUBJID": "01-701-1015",
    "VSSEQ": 83.0,
    "VSTESTCD": "PULSE",
    "VSTEST": "Pulse Rate",
    "VSPOS": "SUPINE",
    "VSORRES": "60",
    "VSORRESU": "BEATS/MIN",
    "VSSTRESC": "60",
    "VSSTRESN": 60.0,
    "VSSTRESU": "BEATS/MIN",
    "VSSTAT": "",
    "VSLOC": "",
    "VSBLFL": "",
    "VISITNUM": 13.0,
    "VISIT": "WEEK 26",
    "VISITDY": 182.0,
    "VSDTC": "2014-07-02",
    "VSDY": 182.0,
    "VSTPT": "AFTER LYING DOWN FOR 5 MINUTES",
    "VSTPTNUM": 815.0,
    "VSELTM": "PT5M",
    "VSTPTREF": "PATIENT SUPINE"
  },
  {
    "STUDYID": "CDISCPILOT01",
    "DOMAIN": "VS",
    "USUBJID": "01-701-1015",
    "VSSEQ": 84.0,
    "VSTESTCD": "PULSE",
    "VSTEST": "Pulse Rate",
    "VSPOS": "STANDING",
    "VSORRES": "61",
    "VSORRESU": "BEATS/MIN",
    "VSSTRESC": "61",
    "VSSTRESN": 61.0,
    "VSSTRESU": "BEATS/MIN",
    "VSSTAT": "",
    "VSLOC": "",
    "VSBLFL": "",
    "VISITNUM": 13.0,
    "VISIT": "WEEK 26",
    "VISITDY": 182.0,
    "VSDTC": "2014-07-02",
    "VSDY": 182.0,
    "VSTPT": "AFTER STANDING FOR 1 MINUTE",
    "VSTPTNUM": 816.0,
    "VSELTM": "PT1M",
    "VSTPTREF": "PATIENT STANDING"
  },
  {
    "STUDYID": "CDISCPILOT01",
    "DOMAIN": "VS",
    "USUBJID": "01-701-1015",
    "VSSEQ": 85.0,
    "VSTESTCD": "PULSE",
    "VSTEST": "Pulse Rate",
    "VSPOS": "STANDING",
    "VSORRES": "59",
    "VSORRESU": "BEATS/MIN",
    "VSSTRESC": "59",
    "VSSTRESN": 59.0,
    "VSSTRESU": "BEATS/MIN",
    "VSSTAT": "",
    "VSLOC": "",
    "VSBLFL": "",
    "VISITNUM": 13.0,
    "VISIT": "WEEK 26",
    "VISITDY": 182.0,
    "VSDTC": "2014-07-02",
    "VSDY": 182.0,
    "VSTPT": "AFTER STANDING FOR 3 MINUTES",
    "VSTPTNUM": 817.0,
    "VSELTM": "PT3M",
    "VSTPTREF": "PATIENT STANDING"
  },
  {
    "STUDYID": "CDISCPILOT01",
    "DOMAIN": "VS",
    "USUBJID": "01-701-1015",
    "VSSEQ": 86.0,
    "VSTESTCD": "SYSBP",
    "VSTEST": "Systolic Blood Pressure",
    "VSPOS": "SUPINE",
    "VSORRES": "131",
    "VSORRESU": "mmHg",
    "VSSTRESC": "131",
    "VSSTRESN": 131.0,
    "VSSTRESU": "mmHg",
    "VSSTAT": "",
    "VSLOC": "",
    "VSBLFL": "",
    "VISITNUM": 1.0,
    "VISIT": "SCREENING 1",
    "VISITDY": -7.0,
    "VSDTC": "2013-12-26",
    "VSDY": -7.0,
    "VSTPT": "AFTER LYING DOWN FOR 5 MINUTES",
    "VSTPTNUM": 815.0,
    "VSELTM": "PT5M",
    "VSTPTREF": "PATIENT SUPINE"
  },
  {
    "STUDYID": "CDISCPILOT01",
    "DOMAIN": "VS",
    "USUBJID": "01-701-1015",
    "VSSEQ": 87.0,
    "VSTESTCD": "SYSBP",
    "VSTEST": "Systolic Blood Pressure",
    "VSPOS": "STANDING",
    "VSORRES": "129",
    "VSORRESU": "mmHg",
    "VSSTRESC": "129",
    "VSSTRESN": 129.0,
    "VSSTRESU": "mmHg",
    "VSSTAT": "",
    "VSLOC": "",
    "VSBLFL": "",
    "VISITNUM": 1.0,
    "VISIT": "SCREENING 1",
    "VISITDY": -7.0,
    "VSDTC": "2013-12-26",
    "VSDY": -7.0,
    "VSTPT": "AFTER STANDING FOR 1 MINUTE",
    "VSTPTNUM": 816.0,
    "VSELTM": "PT1M",
    "VSTPTREF": "PATIENT STANDING"
  },
  {
    "STUDYID": "CDISCPILOT01",
    "DOMAIN": "VS",
    "USUBJID": "01-701-1015",
    "VSSEQ": 88.0,
    "VSTESTCD": "SYSBP",
    "VSTEST": "Systolic Blood Pressure",
    "VSPOS": "STANDING",
    "VSORRES": "147",
    "VSORRESU": "mmHg",
    "VSSTRESC": "147",
    "VSSTRESN": 147.0,
    "VSSTRESU": "mmHg",
    "VSSTAT": "",
    "VSLOC": "",
    "VSBLFL": "",
    "VISITNUM": 1.0,
    "VISIT": "SCREENING 1",
    "VISITDY": -7.0,
    "VSDTC": "2013-12-26",
    "VSDY": -7.0,
    "VSTPT": "AFTER STANDING FOR 3 MINUTES",
    "VSTPTNUM": 817.0,
    "VSELTM": "PT3M",
    "VSTPTREF": "PATIENT STANDING"
  },
  {
    "STUDYID": "CDISCPILOT01",
    "DOMAIN": "VS",
    "USUBJID": "01-701-1015",
    "VSSEQ": 89.0,
    "VSTESTCD": "SYSBP",
    "VSTEST": "Systolic Blood Pressure",
    "VSPOS": "SUPINE",
    "VSORRES": "138",
    "VSORRESU": "mmHg",
    "VSSTRESC": "138",
    "VSSTRESN": 138.0,
    "VSSTRESU": "mmHg",
    "VSSTAT": "",
    "VSLOC": "",
    "VSBLFL": "",
    "VISITNUM": 2.0,
    "VISIT": "SCREENING 2",
    "VISITDY": -1.0,
    "VSDTC": "2013-12-31",
    "VSDY": -2.0,
    "VSTPT": "AFTER LYING DOWN FOR 5 MINUTES",
    "VSTPTNUM": 815.0,
    "VSELTM": "PT5M",
    "VSTPTREF": "PATIENT SUPINE"
  },
  {
    "STUDYID": "CDISCPILOT01",
    "DOMAIN": "VS",
    "USUBJID": "01-701-1015",
    "VSSEQ": 90.0,
    "VSTESTCD": "SYSBP",
    "VSTEST": "Systolic Blood Pressure",
    "VSPOS": "STANDING",
    "VSORRES": "137",
    "VSORRESU": "mmHg",
    "VSSTRESC": "137",
    "VSSTRESN": 137.0,
    "VSSTRESU": "mmHg",
    "VSSTAT": "",
    "VSLOC": "",
    "VSBLFL": "",
    "VISITNUM": 2.0,
    "VISIT": "SCREENING 2",
    "VISITDY": -1.0,
    "VSDTC": "2013-12-31",
    "VSDY": -2.0,
    "VSTPT": "AFTER STANDING FOR 1 MINUTE",
    "VSTPTNUM": 816.0,
    "VSELTM": "PT1M",
    "VSTPTREF": "PATIENT STANDING"
  },
  {
    "STUDYID": "CDISCPILOT01",
    "DOMAIN": "VS",
    "USUBJID": "01-701-1015",
    "VSSEQ": 91.0,
    "VSTESTCD": "SYSBP",
    "VSTEST": "Systolic Blood Pressure",
    "VSPOS": "STANDING",
    "VSORRES": "145",
    "VSORRESU": "mmHg",
    "VSSTRESC": "145",
    "VSSTRESN": 145.0,
    "VSSTRESU": "mmHg",
    "VSSTAT": "",
    "VSLOC": "",
    "VSBLFL": "",
    "VISITNUM": 2.0,
    "VISIT": "SCREENING 2",
    "VISITDY": -1.0,
    "VSDTC": "2013-12-31",
    "VSDY": -2.0,
    "VSTPT": "AFTER STANDING FOR 3 MINUTES",
    "VSTPTNUM": 817.0,
    "VSELTM": "PT3M",
    "VSTPTREF": "PATIENT STANDING"
  },
  {
    "STUDYID": "CDISCPILOT01",
    "DOMAIN": "VS",
    "USUBJID": "01-701-1015",
    "VSSEQ": 92.0,
    "VSTESTCD": "SYSBP",
    "VSTEST": "Systolic Blood Pressure",
    "VSPOS": "SUPINE",
    "VSORRES": "130",
    "VSORRESU": "mmHg",
    "VSSTRESC": "130",
    "VSSTRESN": 130.0,
    "VSSTRESU": "mmHg",
    "VSSTAT": "",
    "VSLOC": "",
    "VSBLFL": "Y",
    "VISITNUM": 3.0,
    "VISIT": "BASELINE",
    "VISITDY": 1.0,
    "VSDTC": "2014-01-02",
    "VSDY": 1.0,
    "VSTPT": "AFTER LYING DOWN FOR 5 MINUTES",
    "VSTPTNUM": 815.0,
    "VSELTM": "PT5M",
    "VSTPTREF": "PATIENT SUPINE"
  },
  {
    "STUDYID": "CDISCPILOT01",
    "DOMAIN": "VS",
    "USUBJID": "01-701-1015",
    "VSSEQ": 93.0,
    "VSTESTCD": "SYSBP",
    "VSTEST": "Systolic Blood Pressure",
    "VSPOS": "STANDING",
    "VSORRES": "121",
    "VSORRESU": "mmHg",
    "VSSTRESC": "121",
    "VSSTRESN": 121.0,
    "VSSTRESU": "mmHg",
    "VSSTAT": "",
    "VSLOC": "",
    "VSBLFL": "Y",
    "VISITNUM": 3.0,
    "VISIT": "BASELINE",
    "VISITDY": 1.0,
    "VSDTC": "2014-01-02",
    "VSDY": 1.0,
    "VSTPT": "AFTER STANDING FOR 1 MINUTE",
    "VSTPTNUM": 816.0,
    "VSELTM": "PT1M",
    "VSTPTREF": "PATIENT STANDING"
  },
  {
    "STUDYID": "CDISCPILOT01",
    "DOMAIN": "VS",
    "USUBJID": "01-701-1015",
    "VSSEQ": 94.0,
    "VSTESTCD": "SYSBP",
    "VSTEST": "Systolic Blood Pressure",
    "VSPOS": "STANDING",
    "VSORRES": "131",
    "VSORRESU": "mmHg",
    "VSSTRESC": "131",
    "VSSTRESN": 131.0,
    "VSSTRESU": "mmHg",
    "VSSTAT": "",
    "VSLOC": "",
    "VSBLFL": "Y",
    "VISITNUM": 3.0,
    "VISIT": "BASELINE",
    "VISITDY": 1.0,
    "VSDTC": "2014-01-02",
    "VSDY": 1.0,
    "VSTPT": "AFTER STANDING FOR 3 MINUTES",
    "VSTPTNUM": 817.0,
    "VSELTM": "PT3M",
    "VSTPTREF": "PATIENT STANDING"
  },
  {
    "STUDYID": "CDISCPILOT01",
    "DOMAIN": "VS",
    "USUBJID": "01-701-1015",
    "VSSEQ": 95.0,
    "VSTESTCD": "SYSBP",
    "VSTEST": "Systolic Blood Pressure",
    "VSPOS": "SUPINE",
    "VSORRES": "137",
    "VSORRESU": "mmHg",
    "VSSTRESC": "137",
    "VSSTRESN": 137.0,
    "VSSTRESU": "mmHg",
    "VSSTAT": "",
    "VSLOC": "",
    "VSBLFL": "",
    "VISITNUM": 3.5,
    "VISIT": "AMBUL ECG PLACEMENT",
    "VISITDY": 13.0,
    "VSDTC": "2014-01-14",
    "VSDY": 13.0,
    "VSTPT": "AFTER LYING DOWN FOR 5 MINUTES",
    "VSTPTNUM": 815.0,
    "VSELTM": "PT5M",
    "VSTPTREF": "PATIENT SUPINE"
  },
  {
    "STUDYID": "CDISCPILOT01",
    "DOMAIN": "VS",
    "USUBJID": "01-701-1015",
    "VSSEQ": 96.0,
    "VSTESTCD": "SYSBP",
    "VSTEST": "Systolic Blood Pressure",
    "VSPOS": "STANDING",
    "VSORRES": "127",
    "VSORRESU": "mmHg",
    "VSSTRESC": "127",
    "VSSTRESN": 127.0,
    "VSSTRESU": "mmHg",
    "VSSTAT": "",
    "VSLOC": "",
    "VSBLFL": "",
    "VISITNUM": 3.5,
    "VISIT": "AMBUL ECG PLACEMENT",
    "VISITDY": 13.0,
    "VSDTC": "2014-01-14",
    "VSDY": 13.0,
    "VSTPT": "AFTER STANDING FOR 1 MINUTE",
    "VSTPTNUM": 816.0,
    "VSELTM": "PT1M",
    "VSTPTREF": "PATIENT STANDING"
  },
  {
    "STUDYID": "CDISCPILOT01",
    "DOMAIN": "VS",
    "USUBJID": "01-701-1015",
    "VSSEQ": 97.0,
    "VSTESTCD": "SYSBP",
    "VSTEST": "Systolic Blood Pressure",
    "VSPOS": "STANDING",
    "VSORRES": "146",
    "VSORRESU": "mmHg",
    "VSSTRESC": "146",
    "VSSTRESN": 146.0,
    "VSSTRESU": "mmHg",
    "VSSTAT": "",
    "VSLOC": "",
    "VSBLFL": "",
    "VISITNUM": 3.5,
    "VISIT": "AMBUL ECG PLACEMENT",
    "VISITDY": 13.0,
    "VSDTC": "2014-01-14",
    "VSDY": 13.0,
    "VSTPT": "AFTER STANDING FOR 3 MINUTES",
    "VSTPTNUM": 817.0,
    "VSELTM": "PT3M",
    "VSTPTREF": "PATIENT STANDING"
  },
  {
    "STUDYID": "CDISCPILOT01",
    "DOMAIN": "VS",
    "USUBJID": "01-701-1015",
    "VSSEQ": 98.0,
    "VSTESTCD": "SYSBP",
    "VSTEST": "Systolic Blood Pressure",
    "VSPOS": "SUPINE",
    "VSORRES": "114",
    "VSORRESU": "mmHg",
    "VSSTRESC": "114",
    "VSSTRESN": 114.0,
    "VSSTRESU": "mmHg",
    "VSSTAT": "",
    "VSLOC": "",
    "VSBLFL": "",
    "VISITNUM": 4.0,
    "VISIT": "WEEK 2",
    "VISITDY": 14.0,
    "VSDTC": "2014-01-16",
    "VSDY": 15.0,
    "VSTPT": "AFTER LYING DOWN FOR 5 MINUTES",
    "VSTPTNUM": 815.0,
    "VSELTM": "PT5M",
    "VSTPTREF": "PATIENT SUPINE"
  },
  {
    "STUDYID": "CDISCPILOT01",
    "DOMAIN": "VS",
    "USUBJID": "01-701-1015",
    "VSSEQ": 99.0,
    "VSTESTCD": "SYSBP",
    "VSTEST": "Systolic Blood Pressure",
    "VSPOS": "STANDING",
    "VSORRES": "121",
    "VSORRESU": "mmHg",
    "VSSTRESC": "121",
    "VSSTRESN": 121.0,
    "VSSTRESU": "mmHg",
    "VSSTAT": "",
    "VSLOC": "",
    "VSBLFL": "",
    "VISITNUM": 4.0,
    "VISIT": "WEEK 2",
    "VISITDY": 14.0,
    "VSDTC": "2014-01-16",
    "VSDY": 15.0,
    "VSTPT": "AFTER STANDING FOR 1 MINUTE",
    "VSTPTNUM": 816.0,
    "VSELTM": "PT1M",
    "VSTPTREF": "PATIENT STANDING"
  },
  {
    "STUDYID": "CDISCPILOT01",
    "DOMAIN": "VS",
    "USUBJID": "01-701-1015",
    "VSSEQ": 100.0,
    "VSTESTCD": "SYSBP",
    "VSTEST": "Systolic Blood Pressure",
    "VSPOS": "STANDING",
    "VSORRES": "132",
    "VSORRESU": "mmHg",
    "VSSTRESC": "132",
    "VSSTRESN": 132.0,
    "VSSTRESU": "mmHg",
    "VSSTAT": "",
    "VSLOC": "",
    "VSBLFL": "",
    "VISITNUM": 4.0,
    "VISIT": "WEEK 2",
    "VISITDY": 14.0,
    "VSDTC": "2014-01-16",
    "VSDY": 15.0,
    "VSTPT": "AFTER STANDING FOR 3 MINUTES",
    "VSTPTNUM": 817.0,
    "VSELTM": "PT3M",
    "VSTPTREF": "PATIENT STANDING"
  },
  {
    "STUDYID": "CDISCPILOT01",
    "DOMAIN": "VS",
    "USUBJID": "01-701-1015",
    "VSSEQ": 101.0,
    "VSTESTCD": "SYSBP",
    "VSTEST": "Systolic Blood Pressure",
    "VSPOS": "SUPINE",
    "VSORRES": "138",
    "VSORRESU": "mmHg",
    "VSSTRESC": "138",
    "VSSTRESN": 138.0,
    "VSSTRESU": "mmHg",
    "VSSTAT": "",
    "VSLOC": "",
    "VSBLFL": "",
    "VISITNUM": 5.0,
    "VISIT": "WEEK 4",
    "VISITDY": 28.0,
    "VSDTC": "2014-01-30",
    "VSDY": 29.0,
    "VSTPT": "AFTER LYING DOWN FOR 5 MINUTES",
    "VSTPTNUM": 815.0,
    "VSELTM": "PT5M",
    "VSTPTREF": "PATIENT SUPINE"
  },
  {
    "STUDYID": "CDISCPILOT01",
    "DOMAIN": "VS",
    "USUBJID": "01-701-1015",
    "VSSEQ": 102.0,
    "VSTESTCD": "SYSBP",
    "VSTEST": "Systolic Blood Pressure",
    "VSPOS": "STANDING",
    "VSORRES": "137",
    "VSORRESU": "mmHg",
    "VSSTRESC": "137",
    "VSSTRESN": 137.0,
    "VSSTRESU": "mmHg",
    "VSSTAT": "",
    "VSLOC": "",
    "VSBLFL": "",
    "VISITNUM": 5.0,
    "VISIT": "WEEK 4",
    "VISITDY": 28.0,
    "VSDTC": "2014-01-30",
    "VSDY": 29.0,
    "VSTPT": "AFTER STANDING FOR 1 MINUTE",
    "VSTPTNUM": 816.0,
    "VSELTM": "PT1M",
    "VSTPTREF": "PATIENT STANDING"
  },
  {
    "STUDYID": "CDISCPILOT01",
    "DOMAIN": "VS",
    "USUBJID": "01-701-1015",
    "VSSEQ": 103.0,
    "VSTESTCD": "SYSBP",
    "VSTEST": "Systolic Blood Pressure",
    "VSPOS": "STANDING",
    "VSORRES": "132",
    "VSORRESU": "mmHg",
    "VSSTRESC": "132",
    "VSSTRESN": 132.0,
    "VSSTRESU": "mmHg",
    "VSSTAT": "",
    "VSLOC": "",
    "VSBLFL": "",
    "VISITNUM": 5.0,
    "VISIT": "WEEK 4",
    "VISITDY": 28.0,
    "VSDTC": "2014-01-30",
    "VSDY": 29.0,
    "VSTPT": "AFTER STANDING FOR 3 MINUTES",
    "VSTPTNUM": 817.0,
    "VSELTM": "PT3M",
    "VSTPTREF": "PATIENT STANDING"
  },
  {
    "STUDYID": "CDISCPILOT01",
    "DOMAIN": "VS",
    "USUBJID": "01-701-1015",
    "VSSEQ": 104.0,
    "VSTESTCD": "SYSBP",
    "VSTEST": "Systolic Blood Pressure",
    "VSPOS": "SUPINE",
    "VSORRES": "138",
    "VSORRESU": "mmHg",
    "VSSTRESC": "138",
    "VSSTRESN": 138.0,
    "VSSTRESU": "mmHg",
    "VSSTAT": "",
    "VSLOC": "",
    "VSBLFL": "",
    "VISITNUM": 6.0,
    "VISIT": "AMBUL ECG REMOVAL",
    "VISITDY": 30.0,
    "VSDTC": "2014-02-01",
    "VSDY": 31.0,
    "VSTPT": "AFTER LYING DOWN FOR 5 MINUTES",
    "VSTPTNUM": 815.0,
    "VSELTM": "PT5M",
    "VSTPTREF": "PATIENT SUPINE"
  },
  {
    "STUDYID": "CDISCPILOT01",
    "DOMAIN": "VS",
    "USUBJID": "01-701-1015",
    "VSSEQ": 105.0,
    "VSTESTCD": "SYSBP",
    "VSTEST": "Systolic Blood Pressure",
    "VSPOS": "STANDING",
    "VSORRES": "131",
    "VSORRESU": "mmHg",
    "VSSTRESC": "131",
    "VSSTRESN": 131.0,
    "VSSTRESU": "mmHg",
    "VSSTAT": "",
    "VSLOC": "",
    "VSBLFL": "",
    "VISITNUM": 6.0,
    "VISIT": "AMBUL ECG REMOVAL",
    "VISITDY": 30.0,
    "VSDTC": "2014-02-01",
    "VSDY": 31.0,
    "VSTPT": "AFTER STANDING FOR 1 MINUTE",
    "VSTPTNUM": 816.0,
    "VSELTM": "PT1M",
    "VSTPTREF": "PATIENT STANDING"
  },
  {
    "STUDYID": "CDISCPILOT01",
    "DOMAIN": "VS",
    "USUBJID": "01-701-1015",
    "VSSEQ": 106.0,
    "VSTESTCD": "SYSBP",
    "VSTEST": "Systolic Blood Pressure",
    "VSPOS": "STANDING",
    "VSORRES": "123",
    "VSORRESU": "mmHg",
    "VSSTRESC": "123",
    "VSSTRESN": 123.0,
    "VSSTRESU": "mmHg",
    "VSSTAT": "",
    "VSLOC": "",
    "VSBLFL": "",
    "VISITNUM": 6.0,
    "VISIT": "AMBUL ECG REMOVAL",
    "VISITDY": 30.0,
    "VSDTC": "2014-02-01",
    "VSDY": 31.0,
    "VSTPT": "AFTER STANDING FOR 3 MINUTES",
    "VSTPTNUM": 817.0,
    "VSELTM": "PT3M",
    "VSTPTREF": "PATIENT STANDING"
  },
  {
    "STUDYID": "CDISCPILOT01",
    "DOMAIN": "VS",
    "USUBJID": "01-701-1015",
    "VSSEQ": 107.0,
    "VSTESTCD": "SYSBP",
    "VSTEST": "Systolic Blood Pressure",
    "VSPOS": "SUPINE",
    "VSORRES": "148",
    "VSORRESU": "mmHg",
    "VSSTRESC": "148",
    "VSSTRESN": 148.0,
    "VSSTRESU": "mmHg",
    "VSSTAT": "",
    "VSLOC": "",
    "VSBLFL": "",
    "VISITNUM": 7.0,
    "VISIT": "WEEK 6",
    "VISITDY": 42.0,
    "VSDTC": "2014-02-12",
    "VSDY": 42.0,
    "VSTPT": "AFTER LYING DOWN FOR 5 MINUTES",
    "VSTPTNUM": 815.0,
    "VSELTM": "PT5M",
    "VSTPTREF": "PATIENT SUPINE"
  },
  {
    "STUDYID": "CDISCPILOT01",
    "DOMAIN": "VS",
    "USUBJID": "01-701-1015",
    "VSSEQ": 108.0,
    "VSTESTCD": "SYSBP",
    "VSTEST": "Systolic Blood Pressure",
    "VSPOS": "STANDING",
    "VSORRES": "137",
    "VSORRESU": "mmHg",
    "VSSTRESC": "137",
    "VSSTRESN": 137.0,
    "VSSTRESU": "mmHg",
    "VSSTAT": "",
    "VSLOC": "",
    "VSBLFL": "",
    "VISITNUM": 7.0,
    "VISIT": "WEEK 6",
    "VISITDY": 42.0,
    "VSDTC": "2014-02-12",
    "VSDY": 42.0,
    "VSTPT": "AFTER STANDING FOR 1 MINUTE",
    "VSTPTNUM": 816.0,
    "VSELTM": "PT1M",
    "VSTPTREF": "PATIENT STANDING"
  },
  {
    "STUDYID": "CDISCPILOT01",
    "DOMAIN": "VS",
    "USUBJID": "01-701-1015",
    "VSSEQ": 109.0,
    "VSTESTCD": "SYSBP",
    "VSTEST": "Systolic Blood Pressure",
    "VSPOS": "STANDING",
    "VSORRES": "138",
    "VSORRESU": "mmHg",
    "VSSTRESC": "138",
    "VSSTRESN": 138.0,
    "VSSTRESU": "mmHg",
    "VSSTAT": "",
    "VSLOC": "",
    "VSBLFL": "",
    "VISITNUM": 7.0,
    "VISIT": "WEEK 6",
    "VISITDY": 42.0,
    "VSDTC": "2014-02-12",
    "VSDY": 42.0,
    "VSTPT": "AFTER STANDING FOR 3 MINUTES",
    "VSTPTNUM": 817.0,
    "VSELTM": "PT3M",
    "VSTPTREF": "PATIENT STANDING"
  },
  {
    "STUDYID": "CDISCPILOT01",
    "DOMAIN": "VS",
    "USUBJID": "01-701-1015",
    "VSSEQ": 110.0,
    "VSTESTCD": "SYSBP",
    "VSTEST": "Systolic Blood Pressure",
    "VSPOS": "SUPINE",
    "VSORRES": "138",
    "VSORRESU": "mmHg",
    "VSSTRESC": "138",
    "VSSTRESN": 138.0,
    "VSSTRESU": "mmHg",
    "VSSTAT": "",
    "VSLOC": "",
    "VSBLFL": "",
    "VISITNUM": 8.0,
    "VISIT": "WEEK 8",
    "VISITDY": 56.0,
    "VSDTC": "2014-03-05",
    "VSDY": 63.0,
    "VSTPT": "AFTER LYING DOWN FOR 5 MINUTES",
    "VSTPTNUM": 815.0,
    "VSELTM": "PT5M",
    "VSTPTREF": "PATIENT SUPINE"
  },
  {
    "STUDYID": "CDISCPILOT01",
    "DOMAIN": "VS",
    "USUBJID": "01-701-1015",
    "VSSEQ": 111.0,
    "VSTESTCD": "SYSBP",
    "VSTEST": "Systolic Blood Pressure",
    "VSPOS": "STANDING",
    "VSORRES": "146",
    "VSORRESU": "mmHg",
    "VSSTRESC": "146",
    "VSSTRESN": 146.0,
    "VSSTRESU": "mmHg",
    "VSSTAT": "",
    "VSLOC": "",
    "VSBLFL": "",
    "VISITNUM": 8.0,
    "VISIT": "WEEK 8",
    "VISITDY": 56.0,
    "VSDTC": "2014-03-05",
    "VSDY": 63.0,
    "VSTPT": "AFTER STANDING FOR 1 MINUTE",
    "VSTPTNUM": 816.0,
    "VSELTM": "PT1M",
    "VSTPTREF": "PATIENT STANDING"
  },
  {
    "STUDYID": "CDISCPILOT01",
    "DOMAIN": "VS",
    "USUBJID": "01-701-1015",
    "VSSEQ": 112.0,
    "VSTESTCD": "SYSBP",
    "VSTEST": "Systolic Blood Pressure",
    "VSPOS": "STANDING",
    "VSORRES": "140",
    "VSORRESU": "mmHg",
    "VSSTRESC": "140",
    "VSSTRESN": 140.0,
    "VSSTRESU": "mmHg",
    "VSSTAT": "",
    "VSLOC": "",
    "VSBLFL": "",
    "VISITNUM": 8.0,
    "VISIT": "WEEK 8",
    "VISITDY": 56.0,
    "VSDTC": "2014-03-05",
    "VSDY": 63.0,
    "VSTPT": "AFTER STANDING FOR 3 MINUTES",
    "VSTPTNUM": 817.0,
    "VSELTM": "PT3M",
    "VSTPTREF": "PATIENT STANDING"
  },
  {
    "STUDYID": "CDISCPILOT01",
    "DOMAIN": "VS",
    "USUBJID": "01-701-1015",
    "VSSEQ": 113.0,
    "VSTESTCD": "SYSBP",
    "VSTEST": "Systolic Blood Pressure",
    "VSPOS": "SUPINE",
    "VSORRES": "139",
    "VSORRESU": "mmHg",
    "VSSTRESC": "139",
    "VSSTRESN": 139.0,
    "VSSTRESU": "mmHg",
    "VSSTAT": "",
    "VSLOC": "",
    "VSBLFL": "",
    "VISITNUM": 9.0,
    "VISIT": "WEEK 12",
    "VISITDY": 84.0,
    "VSDTC": "2014-03-26",
    "VSDY": 84.0,
    "VSTPT": "AFTER LYING DOWN FOR 5 MINUTES",
    "VSTPTNUM": 815.0,
    "VSELTM": "PT5M",
    "VSTPTREF": "PATIENT SUPINE"
  },
  {
    "STUDYID": "CDISCPILOT01",
    "DOMAIN": "VS",
    "USUBJID": "01-701-1015",
    "VSSEQ": 114.0,
    "VSTESTCD": "SYSBP",
    "VSTEST": "Systolic Blood Pressure",
    "VSPOS": "STANDING",
    "VSORRES": "146",
    "VSORRESU": "mmHg",
    "VSSTRESC": "146",
    "VSSTRESN": 146.0,
    "VSSTRESU": "mmHg",
    "VSSTAT": "",
    "VSLOC": "",
    "VSBLFL": "",
    "VISITNUM": 9.0,
    "VISIT": "WEEK 12",
    "VISITDY": 84.0,
    "VSDTC": "2014-03-26",
    "VSDY": 84.0,
    "VSTPT": "AFTER STANDING FOR 1 MINUTE",
    "VSTPTNUM": 816.0,
    "VSELTM": "PT1M",
    "VSTPTREF": "PATIENT STANDING"
  },
  {
    "STUDYID": "CDISCPILOT01",
    "DOMAIN": "VS",
    "USUBJID": "01-701-1015",
    "VSSEQ": 115.0,
    "VSTESTCD": "SYSBP",
    "VSTEST": "Systolic Blood Pressure",
    "VSPOS": "STANDING",
    "VSORRES": "138",
    "VSORRESU": "mmHg",
    "VSSTRESC": "138",
    "VSSTRESN": 138.0,
    "VSSTRESU": "mmHg",
    "VSSTAT": "",
    "VSLOC": "",
    "VSBLFL": "",
    "VISITNUM": 9.0,
    "VISIT": "WEEK 12",
    "VISITDY": 84.0,
    "VSDTC": "2014-03-26",
    "VSDY": 84.0,
    "VSTPT": "AFTER STANDING FOR 3 MINUTES",
    "VSTPTNUM": 817.0,
    "VSELTM": "PT3M",
    "VSTPTREF": "PATIENT STANDING"
  },
  {
    "STUDYID": "CDISCPILOT01",
    "DOMAIN": "VS",
    "USUBJID": "01-701-1015",
    "VSSEQ": 116.0,
    "VSTESTCD": "SYSBP",
    "VSTEST": "Systolic Blood Pressure",
    "VSPOS": "SUPINE",
    "VSORRES": "163",
    "VSORRESU": "mmHg",
    "VSSTRESC": "163",
    "VSSTRESN": 163.0,
    "VSSTRESU": "mmHg",
    "VSSTAT": "",
    "VSLOC": "",
    "VSBLFL": "",
    "VISITNUM": 10.0,
    "VISIT": "WEEK 16",
    "VISITDY": 112.0,
    "VSDTC": "2014-05-07",
    "VSDY": 126.0,
    "VSTPT": "AFTER LYING DOWN FOR 5 MINUTES",
    "VSTPTNUM": 815.0,
    "VSELTM": "PT5M",
    "VSTPTREF": "PATIENT SUPINE"
  },
  {
    "STUDYID": "CDISCPILOT01",
    "DOMAIN": "VS",
    "USUBJID": "01-701-1015",
    "VSSEQ": 117.0,
    "VSTESTCD": "SYSBP",
    "VSTEST": "Systolic Blood Pressure",
    "VSPOS": "STANDING",
    "VSORRES": "145",
    "VSORRESU": "mmHg",
    "VSSTRESC": "145",
    "VSSTRESN": 145.0,
    "VSSTRESU": "mmHg",
    "VSSTAT": "",
    "VSLOC": "",
    "VSBLFL": "",
    "VISITNUM": 10.0,
    "VISIT": "WEEK 16",
    "VISITDY": 112.0,
    "VSDTC": "2014-05-07",
    "VSDY": 126.0,
    "VSTPT": "AFTER STANDING FOR 1 MINUTE",
    "VSTPTNUM": 816.0,
    "VSELTM": "PT1M",
    "VSTPTREF": "PATIENT STANDING"
  },
  {
    "STUDYID": "CDISCPILOT01",
    "DOMAIN": "VS",
    "USUBJID": "01-701-1015",
    "VSSEQ": 118.0,
    "VSTESTCD": "SYSBP",
    "VSTEST": "Systolic Blood Pressure",
    "VSPOS": "STANDING",
    "VSORRES": "152",
    "VSORRESU": "mmHg",
    "VSSTRESC": "152",
    "VSSTRESN": 152.0,
    "VSSTRESU": "mmHg",
    "VSSTAT": "",
    "VSLOC": "",
    "VSBLFL": "",
    "VISITNUM": 10.0,
    "VISIT": "WEEK 16",
    "VISITDY": 112.0,
    "VSDTC": "2014-05-07",
    "VSDY": 126.0,
    "VSTPT": "AFTER STANDING FOR 3 MINUTES",
    "VSTPTNUM": 817.0,
    "VSELTM": "PT3M",
    "VSTPTREF": "PATIENT STANDING"
  },
  {
    "STUDYID": "CDISCPILOT01",
    "DOMAIN": "VS",
    "USUBJID": "01-701-1015",
    "VSSEQ": 119.0,
    "VSTESTCD": "SYSBP",
    "VSTEST": "Systolic Blood Pressure",
    "VSPOS": "SUPINE",
    "VSORRES": "137",
    "VSORRESU": "mmHg",
    "VSSTRESC": "137",
    "VSSTRESN": 137.0,
    "VSSTRESU": "mmHg",
    "VSSTAT": "",
    "VSLOC": "",
    "VSBLFL": "",
    "VISITNUM": 11.0,
    "VISIT": "WEEK 20",
    "VISITDY": 140.0,
    "VSDTC": "2014-05-21",
    "VSDY": 140.0,
    "VSTPT": "AFTER LYING DOWN FOR 5 MINUTES",
    "VSTPTNUM": 815.0,
    "VSELTM": "PT5M",
    "VSTPTREF": "PATIENT SUPINE"
  },
  {
    "STUDYID": "CDISCPILOT01",
    "DOMAIN": "VS",
    "USUBJID": "01-701-1015",
    "VSSEQ": 120.0,
    "VSTESTCD": "SYSBP",
    "VSTEST": "Systolic Blood Pressure",
    "VSPOS": "STANDING",
    "VSORRES": "139",
    "VSORRESU": "mmHg",
    "VSSTRESC": "139",
    "VSSTRESN": 139.0,
    "VSSTRESU": "mmHg",
    "VSSTAT": "",
    "VSLOC": "",
    "VSBLFL": "",
    "VISITNUM": 11.0,
    "VISIT": "WEEK 20",
    "VISITDY": 140.0,
    "VSDTC": "2014-05-21",
    "VSDY": 140.0,
    "VSTPT": "AFTER STANDING FOR 1 MINUTE",
    "VSTPTNUM": 816.0,
    "VSELTM": "PT1M",
    "VSTPTREF": "PATIENT STANDING"
  },
  {
    "STUDYID": "CDISCPILOT01",
    "DOMAIN": "VS",
    "USUBJID": "01-701-1015",
    "VSSEQ": 121.0,
    "VSTESTCD": "SYSBP",
    "VSTEST": "Systolic Blood Pressure",
    "VSPOS": "STANDING",
    "VSORRES": "136",
    "VSORRESU": "mmHg",
    "VSSTRESC": "136",
    "VSSTRESN": 136.0,
    "VSSTRESU": "mmHg",
    "VSSTAT": "",
    "VSLOC": "",
    "VSBLFL": "",
    "VISITNUM": 11.0,
    "VISIT": "WEEK 20",
    "VISITDY": 140.0,
    "VSDTC": "2014-05-21",
    "VSDY": 140.0,
    "VSTPT": "AFTER STANDING FOR 3 MINUTES",
    "VSTPTNUM": 817.0,
    "VSELTM": "PT3M",
    "VSTPTREF": "PATIENT STANDING"
  },
  {
    "STUDYID": "CDISCPILOT01",
    "DOMAIN": "VS",
    "USUBJID": "01-701-1015",
    "VSSEQ": 122.0,
    "VSTESTCD": "SYSBP",
    "VSTEST": "Systolic Blood Pressure",
    "VSPOS": "SUPINE",
    "VSORRES": "129",
    "VSORRESU": "mmHg",
    "VSSTRESC": "129",
    "VSSTRESN": 129.0,
    "VSSTRESU": "mmHg",
    "VSSTAT": "",
    "VSLOC": "",
    "VSBLFL": "",
    "VISITNUM": 12.0,
    "VISIT": "WEEK 24",
    "VISITDY": 168.0,
    "VSDTC": "2014-06-18",
    "VSDY": 168.0,
    "VSTPT": "AFTER LYING DOWN FOR 5 MINUTES",
    "VSTPTNUM": 815.0,
    "VSELTM": "PT5M",
    "VSTPTREF": "PATIENT SUPINE"
  },
  {
    "STUDYID": "CDISCPILOT01",
    "DOMAIN": "VS",
    "USUBJID": "01-701-1015",
    "VSSEQ": 123.0,
    "VSTESTCD": "SYSBP",
    "VSTEST": "Systolic Blood Pressure",
    "VSPOS": "STANDING",
    "VSORRES": "131",
    "VSORRESU": "mmHg",
    "VSSTRESC": "131",
    "VSSTRESN": 131.0,
    "VSSTRESU": "mmHg",
    "VSSTAT": "",
    "VSLOC": "",
    "VSBLFL": "",
    "VISITNUM": 12.0,
    "VISIT": "WEEK 24",
    "VISITDY": 168.0,
    "VSDTC": "2014-06-18",
    "VSDY": 168.0,
    "VSTPT": "AFTER STANDING FOR 1 MINUTE",
    "VSTPTNUM": 816.0,
    "VSELTM": "PT1M",
    "VSTPTREF": "PATIENT STANDING"
  },
  {
    "STUDYID": "CDISCPILOT01",
    "DOMAIN": "VS",
    "USUBJID": "01-701-1015",
    "VSSEQ": 124.0,
    "VSTESTCD": "SYSBP",
    "VSTEST": "Systolic Blood Pressure",
    "VSPOS": "STANDING",
    "VSORRES": "137",
    "VSORRESU": "mmHg",
    "VSSTRESC": "137",
    "VSSTRESN": 137.0,
    "VSSTRESU": "mmHg",
    "VSSTAT": "",
    "VSLOC": "",
    "VSBLFL": "",
    "VISITNUM": 12.0,
    "VISIT": "WEEK 24",
    "VISITDY": 168.0,
    "VSDTC": "2014-06-18",
    "VSDY": 168.0,
    "VSTPT": "AFTER STANDING FOR 3 MINUTES",
    "VSTPTNUM": 817.0,
    "VSELTM": "PT3M",
    "VSTPTREF": "PATIENT STANDING"
  },
  {
    "STUDYID": "CDISCPILOT01",
    "DOMAIN": "VS",
    "USUBJID": "01-701-1015",
    "VSSEQ": 125.0,
    "VSTESTCD": "SYSBP",
    "VSTEST": "Systolic Blood Pressure",
    "VSPOS": "SUPINE",
    "VSORRES": "127",
    "VSORRESU": "mmHg",
    "VSSTRESC": "127",
    "VSSTRESN": 127.0,
    "VSSTRESU": "mmHg",
    "VSSTAT": "",
    "VSLOC": "",
    "VSBLFL": "",
    "VISITNUM": 13.0,
    "VISIT": "WEEK 26",
    "VISITDY": 182.0,
    "VSDTC": "2014-07-02",
    "VSDY": 182.0,
    "VSTPT": "AFTER LYING DOWN FOR 5 MINUTES",
    "VSTPTNUM": 815.0,
    "VSELTM": "PT5M",
    "VSTPTREF": "PATIENT SUPINE"
  },
  {
    "STUDYID": "CDISCPILOT01",
    "DOMAIN": "VS",
    "USUBJID": "01-701-1015",
    "VSSEQ": 126.0,
    "VSTESTCD": "SYSBP",
    "VSTEST": "Systolic Blood Pressure",
    "VSPOS": "STANDING",
    "VSORRES": "128",
    "VSORRESU": "mmHg",
    "VSSTRESC": "128",
    "VSSTRESN": 128.0,
    "VSSTRESU": "mmHg",
    "VSSTAT": "",
    "VSLOC": "",
    "VSBLFL": "",
    "VISITNUM": 13.0,
    "VISIT": "WEEK 26",
    "VISITDY": 182.0,
    "VSDTC": "2014-07-02",
    "VSDY": 182.0,
    "VSTPT": "AFTER STANDING FOR 1 MINUTE",
    "VSTPTNUM": 816.0,
    "VSELTM": "PT1M",
    "VSTPTREF": "PATIENT STANDING"
  },
  {
    "STUDYID": "CDISCPILOT01",
    "DOMAIN": "VS",
    "USUBJID": "01-701-1015",
    "VSSEQ": 127.0,
    "VSTESTCD": "SYSBP",
    "VSTEST": "Systolic Blood Pressure",
    "VSPOS": "STANDING",
    "VSORRES": "129",
    "VSORRESU": "mmHg",
    "VSSTRESC": "129",
    "VSSTRESN": 129.0,
    "VSSTRESU": "mmHg",
    "VSSTAT": "",
    "VSLOC": "",
    "VSBLFL": "",
    "VISITNUM": 13.0,
    "VISIT": "WEEK 26",
    "VISITDY": 182.0,
    "VSDTC": "2014-07-02",
    "VSDY": 182.0,
    "VSTPT": "AFTER STANDING FOR 3 MINUTES",
    "VSTPTNUM": 817.0,
    "VSELTM": "PT3M",
    "VSTPTREF": "PATIENT STANDING"
  },
  {
    "STUDYID": "CDISCPILOT01",
    "DOMAIN": "VS",
    "USUBJID": "01-701-1015",
    "VSSEQ": 128.0,
    "VSTESTCD": "TEMP",
    "VSTEST": "Temperature",
    "VSPOS": "",
    "VSORRES": "96.9",
    "VSORRESU": "F",
    "VSSTRESC": "36.06",
    "VSSTRESN": 36.06,
    "VSSTRESU": "C",
    "VSSTAT": "",
    "VSLOC": "ORAL CAVITY",
    "VSBLFL": "",
    "VISITNUM": 1.0,
    "VISIT": "SCREENING 1",
    "VISITDY": -7.0,
    "VSDTC": "2013-12-26",
    "VSDY": -7.0,
    "VSTPT": "",
    "VSTPTNUM": "",
    "VSELTM": "",
    "VSTPTREF": ""
  },
  {
    "STUDYID": "CDISCPILOT01",
    "DOMAIN": "VS",
    "USUBJID": "01-701-1015",
    "VSSEQ": 129.0,
    "VSTESTCD": "TEMP",
    "VSTEST": "Temperature",
    "VSPOS": "",
    "VSORRES": "97.0",
    "VSORRESU": "F",
    "VSSTRESC": "36.11",
    "VSSTRESN": 36.11,
    "VSSTRESU": "C",
    "VSSTAT": "",
    "VSLOC": "ORAL CAVITY",
    "VSBLFL": "",
    "VISITNUM": 2.0,
    "VISIT": "SCREENING 2",
    "VISITDY": -1.0,
    "VSDTC": "2013-12-31",
    "VSDY": -2.0,
    "VSTPT": "",
    "VSTPTNUM": "",
    "VSELTM": "",
    "VSTPTREF": ""
  },
  {
    "STUDYID": "CDISCPILOT01",
    "DOMAIN": "VS",
    "USUBJID": "01-701-1015",
    "VSSEQ": 130.0,
    "VSTESTCD": "TEMP",
    "VSTEST": "Temperature",
    "VSPOS": "",
    "VSORRES": "97.2",
    "VSORRESU": "F",
    "VSSTRESC": "36.22",
    "VSSTRESN": 36.22,
    "VSSTRESU": "C",
    "VSSTAT": "",
    "VSLOC": "ORAL CAVITY",
    "VSBLFL": "Y",
    "VISITNUM": 3.0,
    "VISIT": "BASELINE",
    "VISITDY": 1.0,
    "VSDTC": "2014-01-02",
    "VSDY": 1.0,
    "VSTPT": "",
    "VSTPTNUM": "",
    "VSELTM": "",
    "VSTPTREF": ""
  },
  {
    "STUDYID": "CDISCPILOT01",
    "DOMAIN": "VS",
    "USUBJID": "01-701-1015",
    "VSSEQ": 131.0,
    "VSTESTCD": "TEMP",
    "VSTEST": "Temperature",
    "VSPOS": "",
    "VSORRES": "96.6",
    "VSORRESU": "F",
    "VSSTRESC": "35.89",
    "VSSTRESN": 35.89,
    "VSSTRESU": "C",
    "VSSTAT": "",
    "VSLOC": "ORAL CAVITY",
    "VSBLFL": "",
    "VISITNUM": 3.5,
    "VISIT": "AMBUL ECG PLACEMENT",
    "VISITDY": 13.0,
    "VSDTC": "2014-01-14",
    "VSDY": 13.0,
    "VSTPT": "",
    "VSTPTNUM": "",
    "VSELTM": "",
    "VSTPTREF": ""
  },
  {
    "STUDYID": "CDISCPILOT01",
    "DOMAIN": "VS",
    "USUBJID": "01-701-1015",
    "VSSEQ": 132.0,
    "VSTESTCD": "TEMP",
    "VSTEST": "Temperature",
    "VSPOS": "",
    "VSORRES": "97.7",
    "VSORRESU": "F",
    "VSSTRESC": "36.5",
    "VSSTRESN": 36.5,
    "VSSTRESU": "C",
    "VSSTAT": "",
    "VSLOC": "ORAL CAVITY",
    "VSBLFL": "",
    "VISITNUM": 4.0,
    "VISIT": "WEEK 2",
    "VISITDY": 14.0,
    "VSDTC": "2014-01-16",
    "VSDY": 15.0,
    "VSTPT": "",
    "VSTPTNUM": "",
    "VSELTM": "",
    "VSTPTREF": ""
  },
  {
    "STUDYID": "CDISCPILOT01",
    "DOMAIN": "VS",
    "USUBJID": "01-701-1015",
    "VSSEQ": 133.0,
    "VSTESTCD": "TEMP",
    "VSTEST": "Temperature",
    "VSPOS": "",
    "VSORRES": "97.0",
    "VSORRESU": "F",
    "VSSTRESC": "36.11",
    "VSSTRESN": 36.11,
    "VSSTRESU": "C",
    "VSSTAT": "",
    "VSLOC": "ORAL CAVITY",
    "VSBLFL": "",
    "VISITNUM": 5.0,
    "VISIT": "WEEK 4",
    "VISITDY": 28.0,
    "VSDTC": "2014-01-30",
    "VSDY": 29.0,
    "VSTPT": "",
    "VSTPTNUM": "",
    "VSELTM": "",
    "VSTPTREF": ""
  },
  {
    "STUDYID": "CDISCPILOT01",
    "DOMAIN": "VS",
    "USUBJID": "01-701-1015",
    "VSSEQ": 134.0,
    "VSTESTCD": "TEMP",
    "VSTEST": "Temperature",
    "VSPOS": "",
    "VSORRES": "97.5",
    "VSORRESU": "F",
    "VSSTRESC": "36.39",
    "VSSTRESN": 36.39,
    "VSSTRESU": "C",
    "VSSTAT": "",
    "VSLOC": "ORAL CAVITY",
    "VSBLFL": "",
    "VISITNUM": 6.0,
    "VISIT": "AMBUL ECG REMOVAL",
    "VISITDY": 30.0,
    "VSDTC": "2014-02-01",
    "VSDY": 31.0,
    "VSTPT": "",
    "VSTPTNUM": "",
    "VSELTM": "",
    "VSTPTREF": ""
  },
  {
    "STUDYID": "CDISCPILOT01",
    "DOMAIN": "VS",
    "USUBJID": "01-701-1015",
    "VSSEQ": 135.0,
    "VSTESTCD": "TEMP",
    "VSTEST": "Temperature",
    "VSPOS": "",
    "VSORRES": "97.4",
    "VSORRESU": "F",
    "VSSTRESC": "36.33",
    "VSSTRESN": 36.33,
    "VSSTRESU": "C",
    "VSSTAT": "",
    "VSLOC": "ORAL CAVITY",
    "VSBLFL": "",
    "VISITNUM": 7.0,
    "VISIT": "WEEK 6",
    "VISITDY": 42.0,
    "VSDTC": "2014-02-12",
    "VSDY": 42.0,
    "VSTPT": "",
    "VSTPTNUM": "",
    "VSELTM": "",
    "VSTPTREF": ""
  },
  {
    "STUDYID": "CDISCPILOT01",
    "DOMAIN": "VS",
    "USUBJID": "01-701-1015",
    "VSSEQ": 136.0,
    "VSTESTCD": "TEMP",
    "VSTEST": "Temperature",
    "VSPOS": "",
    "VSORRES": "98.0",
    "VSORRESU": "F",
    "VSSTRESC": "36.67",
    "VSSTRESN": 36.67,
    "VSSTRESU": "C",
    "VSSTAT": "",
    "VSLOC": "ORAL CAVITY",
    "VSBLFL": "",
    "VISITNUM": 8.0,
    "VISIT": "WEEK 8",
    "VISITDY": 56.0,
    "VSDTC": "2014-03-05",
    "VSDY": 63.0,
    "VSTPT": "",
    "VSTPTNUM": "",
    "VSELTM": "",
    "VSTPTREF": ""
  },
  {
    "STUDYID": "CDISCPILOT01",
    "DOMAIN": "VS",
    "USUBJID": "01-701-1015",
    "VSSEQ": 137.0,
    "VSTESTCD": "TEMP",
    "VSTEST": "Temperature",
    "VSPOS": "",
    "VSORRES": "97.4",
    "VSORRESU": "F",
    "VSSTRESC": "36.33",
    "VSSTRESN": 36.33,
    "VSSTRESU": "C",
    "VSSTAT": "",
    "VSLOC": "ORAL CAVITY",
    "VSBLFL": "",
    "VISITNUM": 9.0,
    "VISIT": "WEEK 12",
    "VISITDY": 84.0,
    "VSDTC": "2014-03-26",
    "VSDY": 84.0,
    "VSTPT": "",
    "VSTPTNUM": "",
    "VSELTM": "",
    "VSTPTREF": ""
  },
  {
    "STUDYID": "CDISCPILOT01",
    "DOMAIN": "VS",
    "USUBJID": "01-701-1015",
    "VSSEQ": 138.0,
    "VSTESTCD": "TEMP",
    "VSTEST": "Temperature",
    "VSPOS": "",
    "VSORRES": "97.9",
    "VSORRESU": "F",
    "VSSTRESC": "36.61",
    "VSSTRESN": 36.61,
    "VSSTRESU": "C",
    "VSSTAT": "",
    "VSLOC": "ORAL CAVITY",
    "VSBLFL": "",
    "VISITNUM": 10.0,
    "VISIT": "WEEK 16",
    "VISITDY": 112.0,
    "VSDTC": "2014-05-07",
    "VSDY": 126.0,
    "VSTPT": "",
    "VSTPTNUM": "",
    "VSELTM": "",
    "VSTPTREF": ""
  },
  {
    "STUDYID": "CDISCPILOT01",
    "DOMAIN": "VS",
    "USUBJID": "01-701-1015",
    "VSSEQ": 139.0,
    "VSTESTCD": "TEMP",
    "VSTEST": "Temperature",
    "VSPOS": "",
    "VSORRES": "97.4",
    "VSORRESU": "F",
    "VSSTRESC": "36.33",
    "VSSTRESN": 36.33,
    "VSSTRESU": "C",
    "VSSTAT": "",
    "VSLOC": "ORAL CAVITY",
    "VSBLFL": "",
    "VISITNUM": 11.0,
    "VISIT": "WEEK 20",
    "VISITDY": 140.0,
    "VSDTC": "2014-05-21",
    "VSDY": 140.0,
    "VSTPT": "",
    "VSTPTNUM": "",
    "VSELTM": "",
    "VSTPTREF": ""
  },
  {
    "STUDYID": "CDISCPILOT01",
    "DOMAIN": "VS",
    "USUBJID": "01-701-1015",
    "VSSEQ": 140.0,
    "VSTESTCD": "TEMP",
    "VSTEST": "Temperature",
    "VSPOS": "",
    "VSORRES": "97.7",
    "VSORRESU": "F",
    "VSSTRESC": "36.5",
    "VSSTRESN": 36.5,
    "VSSTRESU": "C",
    "VSSTAT": "",
    "VSLOC": "ORAL CAVITY",
    "VSBLFL": "",
    "VISITNUM": 12.0,
    "VISIT": "WEEK 24",
    "VISITDY": 168.0,
    "VSDTC": "2014-06-18",
    "VSDY": 168.0,
    "VSTPT": "",
    "VSTPTNUM": "",
    "VSELTM": "",
    "VSTPTREF": ""
  },
  {
    "STUDYID": "CDISCPILOT01",
    "DOMAIN": "VS",
    "USUBJID": "01-701-1015",
    "VSSEQ": 141.0,
    "VSTESTCD": "TEMP",
    "VSTEST": "Temperature",
    "VSPOS": "",
    "VSORRES": "97.2",
    "VSORRESU": "F",
    "VSSTRESC": "36.22",
    "VSSTRESN": 36.22,
    "VSSTRESU": "C",
    "VSSTAT": "",
    "VSLOC": "ORAL CAVITY",
    "VSBLFL": "",
    "VISITNUM": 13.0,
    "VISIT": "WEEK 26",
    "VISITDY": 182.0,
    "VSDTC": "2014-07-02",
    "VSDY": 182.0,
    "VSTPT": "",
    "VSTPTNUM": "",
    "VSELTM": "",
    "VSTPTREF": ""
  },
  {
    "STUDYID": "CDISCPILOT01",
    "DOMAIN": "VS",
    "USUBJID": "01-701-1015",
    "VSSEQ": 142.0,
    "VSTESTCD": "WEIGHT",
    "VSTEST": "Weight",
    "VSPOS": "",
    "VSORRES": "119.0",
    "VSORRESU": "LB",
    "VSSTRESC": "53.98",
    "VSSTRESN": 53.98,
    "VSSTRESU": "kg",
    "VSSTAT": "",
    "VSLOC": "",
    "VSBLFL": "",
    "VISITNUM": 1.0,
    "VISIT": "SCREENING 1",
    "VISITDY": -7.0,
    "VSDTC": "2013-12-26",
    "VSDY": -7.0,
    "VSTPT": "",
    "VSTPTNUM": "",
    "VSELTM": "",
    "VSTPTREF": ""
  },
  {
    "STUDYID": "CDISCPILOT01",
    "DOMAIN": "VS",
    "USUBJID": "01-701-1015",
    "VSSEQ": 143.0,
    "VSTESTCD": "WEIGHT",
    "VSTEST": "Weight",
    "VSPOS": "",
    "VSORRES": "120.0",
    "VSORRESU": "LB",
    "VSSTRESC": "54.43",
    "VSSTRESN": 54.43,
    "VSSTRESU": "kg",
    "VSSTAT": "",
    "VSLOC": "",
    "VSBLFL": "Y",
    "VISITNUM": 3.0,
    "VISIT": "BASELINE",
    "VISITDY": 1.0,
    "VSDTC": "2014-01-02",
    "VSDY": 1.0,
    "VSTPT": "",
    "VSTPTNUM": "",
    "VSELTM": "",
    "VSTPTREF": ""
  },
  {
    "STUDYID": "CDISCPILOT01",
    "DOMAIN": "VS",
    "USUBJID": "01-701-1015",
    "VSSEQ": 144.0,
    "VSTESTCD": "WEIGHT",
    "VSTEST": "Weight",
    "VSPOS": "",
    "VSORRES": "117.0",
    "VSORRESU": "LB",
    "VSSTRESC": "53.07",
    "VSSTRESN": 53.07,
    "VSSTRESU": "kg",
    "VSSTAT": "",
    "VSLOC": "",
    "VSBLFL": "",
    "VISITNUM": 4.0,
    "VISIT": "WEEK 2",
    "VISITDY": 14.0,
    "VSDTC": "2014-01-16",
    "VSDY": 15.0,
    "VSTPT": "",
    "VSTPTNUM": "",
    "VSELTM": "",
    "VSTPTREF": ""
  },
  {
    "STUDYID": "CDISCPILOT01",
    "DOMAIN": "VS",
    "USUBJID": "01-701-1015",
    "VSSEQ": 145.0,
    "VSTESTCD": "WEIGHT",
    "VSTEST": "Weight",
    "VSPOS": "",
    "VSORRES": "119.0",
    "VSORRESU": "LB",
    "VSSTRESC": "53.98",
    "VSSTRESN": 53.98,
    "VSSTRESU": "kg",
    "VSSTAT": "",
    "VSLOC": "",
    "VSBLFL": "",
    "VISITNUM": 5.0,
    "VISIT": "WEEK 4",
    "VISITDY": 28.0,
    "VSDTC": "2014-01-30",
    "VSDY": 29.0,
    "VSTPT": "",
    "VSTPTNUM": "",
    "VSELTM": "",
    "VSTPTREF": ""
  },
  {
    "STUDYID": "CDISCPILOT01",
    "DOMAIN": "VS",
    "USUBJID": "01-701-1015",
    "VSSEQ": 146.0,
    "VSTESTCD": "WEIGHT",
    "VSTEST": "Weight",
    "VSPOS": "",
    "VSORRES": "117.0",
    "VSORRESU": "LB",
    "VSSTRESC": "53.07",
    "VSSTRESN": 53.07,
    "VSSTRESU": "kg",
    "VSSTAT": "",
    "VSLOC": "",
    "VSBLFL": "",
    "VISITNUM": 7.0,
    "VISIT": "WEEK 6",
    "VISITDY": 42.0,
    "VSDTC": "2014-02-12",
    "VSDY": 42.0,
    "VSTPT": "",
    "VSTPTNUM": "",
    "VSELTM": "",
    "VSTPTREF": ""
  },
  {
    "STUDYID": "CDISCPILOT01",
    "DOMAIN": "VS",
    "USUBJID": "01-701-1015",
    "VSSEQ": 147.0,
    "VSTESTCD": "WEIGHT",
    "VSTEST": "Weight",
    "VSPOS": "",
    "VSORRES": "117.0",
    "VSORRESU": "LB",
    "VSSTRESC": "53.07",
    "VSSTRESN": 53.07,
    "VSSTRESU": "kg",
    "VSSTAT": "",
    "VSLOC": "",
    "VSBLFL": "",
    "VISITNUM": 8.0,
    "VISIT": "WEEK 8",
    "VISITDY": 56.0,
    "VSDTC": "2014-03-05",
    "VSDY": 63.0,
    "VSTPT": "",
    "VSTPTNUM": "",
    "VSELTM": "",
    "VSTPTREF": ""
  },
  {
    "STUDYID": "CDISCPILOT01",
    "DOMAIN": "VS",
    "USUBJID": "01-701-1015",
    "VSSEQ": 148.0,
    "VSTESTCD": "WEIGHT",
    "VSTEST": "Weight",
    "VSPOS": "",
    "VSORRES": "117.0",
    "VSORRESU": "LB",
    "VSSTRESC": "53.07",
    "VSSTRESN": 53.07,
    "VSSTRESU": "kg",
    "VSSTAT": "",
    "VSLOC": "",
    "VSBLFL": "",
    "VISITNUM": 9.0,
    "VISIT": "WEEK 12",
    "VISITDY": 84.0,
    "VSDTC": "2014-03-26",
    "VSDY": 84.0,
    "VSTPT": "",
    "VSTPTNUM": "",
    "VSELTM": "",
    "VSTPTREF": ""
  },
  {
    "STUDYID": "CDISCPILOT01",
    "DOMAIN": "VS",
    "USUBJID": "01-701-1015",
    "VSSEQ": 149.0,
    "VSTESTCD": "WEIGHT",
    "VSTEST": "Weight",
    "VSPOS": "",
    "VSORRES": "117.0",
    "VSORRESU": "LB",
    "VSSTRESC": "53.07",
    "VSSTRESN": 53.07,
    "VSSTRESU": "kg",
    "VSSTAT": "",
    "VSLOC": "",
    "VSBLFL": "",
    "VISITNUM": 10.0,
    "VISIT": "WEEK 16",
    "VISITDY": 112.0,
    "VSDTC": "2014-05-07",
    "VSDY": 126.0,
    "VSTPT": "",
    "VSTPTNUM": "",
    "VSELTM": "",
    "VSTPTREF": ""
  },
  {
    "STUDYID": "CDISCPILOT01",
    "DOMAIN": "VS",
    "USUBJID": "01-701-1015",
    "VSSEQ": 150.0,
    "VSTESTCD": "WEIGHT",
    "VSTEST": "Weight",
    "VSPOS": "",
    "VSORRES": "117.0",
    "VSORRESU": "LB",
    "VSSTRESC": "53.07",
    "VSSTRESN": 53.07,
    "VSSTRESU": "kg",
    "VSSTAT": "",
    "VSLOC": "",
    "VSBLFL": "",
    "VISITNUM": 11.0,
    "VISIT": "WEEK 20",
    "VISITDY": 140.0,
    "VSDTC": "2014-05-21",
    "VSDY": 140.0,
    "VSTPT": "",
    "VSTPTNUM": "",
    "VSELTM": "",
    "VSTPTREF": ""
  },
  {
    "STUDYID": "CDISCPILOT01",
    "DOMAIN": "VS",
    "USUBJID": "01-701-1015",
    "VSSEQ": 151.0,
    "VSTESTCD": "WEIGHT",
    "VSTEST": "Weight",
    "VSPOS": "",
    "VSORRES": "117.0",
    "VSORRESU": "LB",
    "VSSTRESC": "53.07",
    "VSSTRESN": 53.07,
    "VSSTRESU": "kg",
    "VSSTAT": "",
    "VSLOC": "",
    "VSBLFL": "",
    "VISITNUM": 12.0,
    "VISIT": "WEEK 24",
    "VISITDY": 168.0,
    "VSDTC": "2014-06-18",
    "VSDY": 168.0,
    "VSTPT": "",
    "VSTPTNUM": "",
    "VSELTM": "",
    "VSTPTREF": ""
  },
  {
    "STUDYID": "CDISCPILOT01",
    "DOMAIN": "VS",
    "USUBJID": "01-701-1015",
    "VSSEQ": 152.0,
    "VSTESTCD": "WEIGHT",
    "VSTEST": "Weight",
    "VSPOS": "",
    "VSORRES": "118.0",
    "VSORRESU": "LB",
    "VSSTRESC": "53.52",
    "VSSTRESN": 53.52,
    "VSSTRESU": "kg",
    "VSSTAT": "",
    "VSLOC": "",
    "VSBLFL": "",
    "VISITNUM": 13.0,
    "VISIT": "WEEK 26",
    "VISITDY": 182.0,
    "VSDTC": "2014-07-02",
    "VSDY": 182.0,
    "VSTPT": "",
    "VSTPTNUM": "",
    "VSELTM": "",
    "VSTPTREF": ""
  },
  {
    "STUDYID": "CDISCPILOT01",
    "DOMAIN": "VS",
    "USUBJID": "01-701-1023",
    "VSSEQ": 1.0,
    "VSTESTCD": "DIABP",
    "VSTEST": "Diastolic Blood Pressure",
    "VSPOS": "SUPINE",
    "VSORRES": "86",
    "VSORRESU": "mmHg",
    "VSSTRESC": "86",
    "VSSTRESN": 86.0,
    "VSSTRESU": "mmHg",
    "VSSTAT": "",
    "VSLOC": "",
    "VSBLFL": "",
    "VISITNUM": 1.0,
    "VISIT": "SCREENING 1",
    "VISITDY": -7.0,
    "VSDTC": "2012-07-22",
    "VSDY": -14.0,
    "VSTPT": "AFTER LYING DOWN FOR 5 MINUTES",
    "VSTPTNUM": 815.0,
    "VSELTM": "PT5M",
    "VSTPTREF": "PATIENT SUPINE"
  },
  {
    "STUDYID": "CDISCPILOT01",
    "DOMAIN": "VS",
    "USUBJID": "01-701-1023",
    "VSSEQ": 2.0,
    "VSTESTCD": "DIABP",
    "VSTEST": "Diastolic Blood Pressure",
    "VSPOS": "STANDING",
    "VSORRES": "89",
    "VSORRESU": "mmHg",
    "VSSTRESC": "89",
    "VSSTRESN": 89.0,
    "VSSTRESU": "mmHg",
    "VSSTAT": "",
    "VSLOC": "",
    "VSBLFL": "",
    "VISITNUM": 1.0,
    "VISIT": "SCREENING 1",
    "VISITDY": -7.0,
    "VSDTC": "2012-07-22",
    "VSDY": -14.0,
    "VSTPT": "AFTER STANDING FOR 1 MINUTE",
    "VSTPTNUM": 816.0,
    "VSELTM": "PT1M",
    "VSTPTREF": "PATIENT STANDING"
  },
  {
    "STUDYID": "CDISCPILOT01",
    "DOMAIN": "VS",
    "USUBJID": "01-701-1023",
    "VSSEQ": 3.0,
    "VSTESTCD": "DIABP",
    "VSTEST": "Diastolic Blood Pressure",
    "VSPOS": "STANDING",
    "VSORRES": "90",
    "VSORRESU": "mmHg",
    "VSSTRESC": "90",
    "VSSTRESN": 90.0,
    "VSSTRESU": "mmHg",
    "VSSTAT": "",
    "VSLOC": "",
    "VSBLFL": "",
    "VISITNUM": 1.0,
    "VISIT": "SCREENING 1",
    "VISITDY": -7.0,
    "VSDTC": "2012-07-22",
    "VSDY": -14.0,
    "VSTPT": "AFTER STANDING FOR 3 MINUTES",
    "VSTPTNUM": 817.0,
    "VSELTM": "PT3M",
    "VSTPTREF": "PATIENT STANDING"
  },
  {
    "STUDYID": "CDISCPILOT01",
    "DOMAIN": "VS",
    "USUBJID": "01-701-1023",
    "VSSEQ": 4.0,
    "VSTESTCD": "DIABP",
    "VSTEST": "Diastolic Blood Pressure",
    "VSPOS": "SUPINE",
    "VSORRES": "77",
    "VSORRESU": "mmHg",
    "VSSTRESC": "77",
    "VSSTRESN": 77.0,
    "VSSTRESU": "mmHg",
    "VSSTAT": "",
    "VSLOC": "",
    "VSBLFL": "",
    "VISITNUM": 2.0,
    "VISIT": "SCREENING 2",
    "VISITDY": -1.0,
    "VSDTC": "2012-08-03",
    "VSDY": -2.0,
    "VSTPT": "AFTER LYING DOWN FOR 5 MINUTES",
    "VSTPTNUM": 815.0,
    "VSELTM": "PT5M",
    "VSTPTREF": "PATIENT SUPINE"
  },
  {
    "STUDYID": "CDISCPILOT01",
    "DOMAIN": "VS",
    "USUBJID": "01-701-1023",
    "VSSEQ": 5.0,
    "VSTESTCD": "DIABP",
    "VSTEST": "Diastolic Blood Pressure",
    "VSPOS": "STANDING",
    "VSORRES": "79",
    "VSORRESU": "mmHg",
    "VSSTRESC": "79",
    "VSSTRESN": 79.0,
    "VSSTRESU": "mmHg",
    "VSSTAT": "",
    "VSLOC": "",
    "VSBLFL": "",
    "VISITNUM": 2.0,
    "VISIT": "SCREENING 2",
    "VISITDY": -1.0,
    "VSDTC": "2012-08-03",
    "VSDY": -2.0,
    "VSTPT": "AFTER STANDING FOR 1 MINUTE",
    "VSTPTNUM": 816.0,
    "VSELTM": "PT1M",
    "VSTPTREF": "PATIENT STANDING"
  },
  {
    "STUDYID": "CDISCPILOT01",
    "DOMAIN": "VS",
    "USUBJID": "01-701-1023",
    "VSSEQ": 6.0,
    "VSTESTCD": "DIABP",
    "VSTEST": "Diastolic Blood Pressure",
    "VSPOS": "STANDING",
    "VSORRES": "85",
    "VSORRESU": "mmHg",
    "VSSTRESC": "85",
    "VSSTRESN": 85.0,
    "VSSTRESU": "mmHg",
    "VSSTAT": "",
    "VSLOC": "",
    "VSBLFL": "",
    "VISITNUM": 2.0,
    "VISIT": "SCREENING 2",
    "VISITDY": -1.0,
    "VSDTC": "2012-08-03",
    "VSDY": -2.0,
    "VSTPT": "AFTER STANDING FOR 3 MINUTES",
    "VSTPTNUM": 817.0,
    "VSELTM": "PT3M",
    "VSTPTREF": "PATIENT STANDING"
  },
  {
    "STUDYID": "CDISCPILOT01",
    "DOMAIN": "VS",
    "USUBJID": "01-701-1023",
    "VSSEQ": 7.0,
    "VSTESTCD": "DIABP",
    "VSTEST": "Diastolic Blood Pressure",
    "VSPOS": "SUPINE",
    "VSORRES": "84",
    "VSORRESU": "mmHg",
    "VSSTRESC": "84",
    "VSSTRESN": 84.0,
    "VSSTRESU": "mmHg",
    "VSSTAT": "",
    "VSLOC": "",
    "VSBLFL": "Y",
    "VISITNUM": 3.0,
    "VISIT": "BASELINE",
    "VISITDY": 1.0,
    "VSDTC": "2012-08-05",
    "VSDY": 1.0,
    "VSTPT": "AFTER LYING DOWN FOR 5 MINUTES",
    "VSTPTNUM": 815.0,
    "VSELTM": "PT5M",
    "VSTPTREF": "PATIENT SUPINE"
  },
  {
    "STUDYID": "CDISCPILOT01",
    "DOMAIN": "VS",
    "USUBJID": "01-701-1023",
    "VSSEQ": 8.0,
    "VSTESTCD": "DIABP",
    "VSTEST": "Diastolic Blood Pressure",
    "VSPOS": "STANDING",
    "VSORRES": "86",
    "VSORRESU": "mmHg",
    "VSSTRESC": "86",
    "VSSTRESN": 86.0,
    "VSSTRESU": "mmHg",
    "VSSTAT": "",
    "VSLOC": "",
    "VSBLFL": "Y",
    "VISITNUM": 3.0,
    "VISIT": "BASELINE",
    "VISITDY": 1.0,
    "VSDTC": "2012-08-05",
    "VSDY": 1.0,
    "VSTPT": "AFTER STANDING FOR 1 MINUTE",
    "VSTPTNUM": 816.0,
    "VSELTM": "PT1M",
    "VSTPTREF": "PATIENT STANDING"
  },
  {
    "STUDYID": "CDISCPILOT01",
    "DOMAIN": "VS",
    "USUBJID": "01-701-1023",
    "VSSEQ": 9.0,
    "VSTESTCD": "DIABP",
    "VSTEST": "Diastolic Blood Pressure",
    "VSPOS": "STANDING",
    "VSORRES": "88",
    "VSORRESU": "mmHg",
    "VSSTRESC": "88",
    "VSSTRESN": 88.0,
    "VSSTRESU": "mmHg",
    "VSSTAT": "",
    "VSLOC": "",
    "VSBLFL": "Y",
    "VISITNUM": 3.0,
    "VISIT": "BASELINE",
    "VISITDY": 1.0,
    "VSDTC": "2012-08-05",
    "VSDY": 1.0,
    "VSTPT": "AFTER STANDING FOR 3 MINUTES",
    "VSTPTNUM": 817.0,
    "VSELTM": "PT3M",
    "VSTPTREF": "PATIENT STANDING"
  },
  {
    "STUDYID": "CDISCPILOT01",
    "DOMAIN": "VS",
    "USUBJID": "01-701-1023",
    "VSSEQ": 10.0,
    "VSTESTCD": "DIABP",
    "VSTEST": "Diastolic Blood Pressure",
    "VSPOS": "SUPINE",
    "VSORRES": "82",
    "VSORRESU": "mmHg",
    "VSSTRESC": "82",
    "VSSTRESN": 82.0,
    "VSSTRESU": "mmHg",
    "VSSTAT": "",
    "VSLOC": "",
    "VSBLFL": "",
    "VISITNUM": 3.5,
    "VISIT": "AMBUL ECG PLACEMENT",
    "VISITDY": 13.0,
    "VSDTC": "2012-08-26",
    "VSDY": 22.0,
    "VSTPT": "AFTER LYING DOWN FOR 5 MINUTES",
    "VSTPTNUM": 815.0,
    "VSELTM": "PT5M",
    "VSTPTREF": "PATIENT SUPINE"
  },
  {
    "STUDYID": "CDISCPILOT01",
    "DOMAIN": "VS",
    "USUBJID": "01-701-1023",
    "VSSEQ": 11.0,
    "VSTESTCD": "DIABP",
    "VSTEST": "Diastolic Blood Pressure",
    "VSPOS": "STANDING",
    "VSORRES": "88",
    "VSORRESU": "mmHg",
    "VSSTRESC": "88",
    "VSSTRESN": 88.0,
    "VSSTRESU": "mmHg",
    "VSSTAT": "",
    "VSLOC": "",
    "VSBLFL": "",
    "VISITNUM": 3.5,
    "VISIT": "AMBUL ECG PLACEMENT",
    "VISITDY": 13.0,
    "VSDTC": "2012-08-26",
    "VSDY": 22.0,
    "VSTPT": "AFTER STANDING FOR 1 MINUTE",
    "VSTPTNUM": 816.0,
    "VSELTM": "PT1M",
    "VSTPTREF": "PATIENT STANDING"
  },
  {
    "STUDYID": "CDISCPILOT01",
    "DOMAIN": "VS",
    "USUBJID": "01-701-1023",
    "VSSEQ": 12.0,
    "VSTESTCD": "DIABP",
    "VSTEST": "Diastolic Blood Pressure",
    "VSPOS": "STANDING",
    "VSORRES": "89",
    "VSORRESU": "mmHg",
    "VSSTRESC": "89",
    "VSSTRESN": 89.0,
    "VSSTRESU": "mmHg",
    "VSSTAT": "",
    "VSLOC": "",
    "VSBLFL": "",
    "VISITNUM": 3.5,
    "VISIT": "AMBUL ECG PLACEMENT",
    "VISITDY": 13.0,
    "VSDTC": "2012-08-26",
    "VSDY": 22.0,
    "VSTPT": "AFTER STANDING FOR 3 MINUTES",
    "VSTPTNUM": 817.0,
    "VSELTM": "PT3M",
    "VSTPTREF": "PATIENT STANDING"
  },
  {
    "STUDYID": "CDISCPILOT01",
    "DOMAIN": "VS",
    "USUBJID": "01-701-1023",
    "VSSEQ": 13.0,
    "VSTESTCD": "DIABP",
    "VSTEST": "Diastolic Blood Pressure",
    "VSPOS": "SUPINE",
    "VSORRES": "88",
    "VSORRESU": "mmHg",
    "VSSTRESC": "88",
    "VSSTRESN": 88.0,
    "VSSTRESU": "mmHg",
    "VSSTAT": "",
    "VSLOC": "",
    "VSBLFL": "",
    "VISITNUM": 4.0,
    "VISIT": "WEEK 2",
    "VISITDY": 14.0,
    "VSDTC": "2012-08-27",
    "VSDY": 23.0,
    "VSTPT": "AFTER LYING DOWN FOR 5 MINUTES",
    "VSTPTNUM": 815.0,
    "VSELTM": "PT5M",
    "VSTPTREF": "PATIENT SUPINE"
  },
  {
    "STUDYID": "CDISCPILOT01",
    "DOMAIN": "VS",
    "USUBJID": "01-701-1023",
    "VSSEQ": 14.0,
    "VSTESTCD": "DIABP",
    "VSTEST": "Diastolic Blood Pressure",
    "VSPOS": "STANDING",
    "VSORRES": "86",
    "VSORRESU": "mmHg",
    "VSSTRESC": "86",
    "VSSTRESN": 86.0,
    "VSSTRESU": "mmHg",
    "VSSTAT": "",
    "VSLOC": "",
    "VSBLFL": "",
    "VISITNUM": 4.0,
    "VISIT": "WEEK 2",
    "VISITDY": 14.0,
    "VSDTC": "2012-08-27",
    "VSDY": 23.0,
    "VSTPT": "AFTER STANDING FOR 1 MINUTE",
    "VSTPTNUM": 816.0,
    "VSELTM": "PT1M",
    "VSTPTREF": "PATIENT STANDING"
  },
  {
    "STUDYID": "CDISCPILOT01",
    "DOMAIN": "VS",
    "USUBJID": "01-701-1023",
    "VSSEQ": 15.0,
    "VSTESTCD": "DIABP",
    "VSTEST": "Diastolic Blood Pressure",
    "VSPOS": "STANDING",
    "VSORRES": "90",
    "VSORRESU": "mmHg",
    "VSSTRESC": "90",
    "VSSTRESN": 90.0,
    "VSSTRESU": "mmHg",
    "VSSTAT": "",
    "VSLOC": "",
    "VSBLFL": "",
    "VISITNUM": 4.0,
    "VISIT": "WEEK 2",
    "VISITDY": 14.0,
    "VSDTC": "2012-08-27",
    "VSDY": 23.0,
    "VSTPT": "AFTER STANDING FOR 3 MINUTES",
    "VSTPTNUM": 817.0,
    "VSELTM": "PT3M",
    "VSTPTREF": "PATIENT STANDING"
  },
  {
    "STUDYID": "CDISCPILOT01",
    "DOMAIN": "VS",
    "USUBJID": "01-701-1023",
    "VSSEQ": 16.0,
    "VSTESTCD": "DIABP",
    "VSTEST": "Diastolic Blood Pressure",
    "VSPOS": "SUPINE",
    "VSORRES": "86",
    "VSORRESU": "mmHg",
    "VSSTRESC": "86",
    "VSSTRESN": 86.0,
    "VSSTRESU": "mmHg",
    "VSSTAT": "",
    "VSLOC": "",
    "VSBLFL": "",
    "VISITNUM": 5.0,
    "VISIT": "WEEK 4",
    "VISITDY": 28.0,
    "VSDTC": "2012-09-02",
    "VSDY": 29.0,
    "VSTPT": "AFTER LYING DOWN FOR 5 MINUTES",
    "VSTPTNUM": 815.0,
    "VSELTM": "PT5M",
    "VSTPTREF": "PATIENT SUPINE"
  },
  {
    "STUDYID": "CDISCPILOT01",
    "DOMAIN": "VS",
    "USUBJID": "01-701-1023",
    "VSSEQ": 17.0,
    "VSTESTCD": "DIABP",
    "VSTEST": "Diastolic Blood Pressure",
    "VSPOS": "STANDING",
    "VSORRES": "88",
    "VSORRESU": "mmHg",
    "VSSTRESC": "88",
    "VSSTRESN": 88.0,
    "VSSTRESU": "mmHg",
    "VSSTAT": "",
    "VSLOC": "",
    "VSBLFL": "",
    "VISITNUM": 5.0,
    "VISIT": "WEEK 4",
    "VISITDY": 28.0,
    "VSDTC": "2012-09-02",
    "VSDY": 29.0,
    "VSTPT": "AFTER STANDING FOR 1 MINUTE",
    "VSTPTNUM": 816.0,
    "VSELTM": "PT1M",
    "VSTPTREF": "PATIENT STANDING"
  },
  {
    "STUDYID": "CDISCPILOT01",
    "DOMAIN": "VS",
    "USUBJID": "01-701-1023",
    "VSSEQ": 18.0,
    "VSTESTCD": "DIABP",
    "VSTEST": "Diastolic Blood Pressure",
    "VSPOS": "STANDING",
    "VSORRES": "92",
    "VSORRESU": "mmHg",
    "VSSTRESC": "92",
    "VSSTRESN": 92.0,
    "VSSTRESU": "mmHg",
    "VSSTAT": "",
    "VSLOC": "",
    "VSBLFL": "",
    "VISITNUM": 5.0,
    "VISIT": "WEEK 4",
    "VISITDY": 28.0,
    "VSDTC": "2012-09-02",
    "VSDY": 29.0,
    "VSTPT": "AFTER STANDING FOR 3 MINUTES",
    "VSTPTNUM": 817.0,
    "VSELTM": "PT3M",
    "VSTPTREF": "PATIENT STANDING"
  },
  {
    "STUDYID": "CDISCPILOT01",
    "DOMAIN": "VS",
    "USUBJID": "01-701-1023",
    "VSSEQ": 19.0,
    "VSTESTCD": "DIABP",
    "VSTEST": "Diastolic Blood Pressure",
    "VSPOS": "SUPINE",
    "VSORRES": "89",
    "VSORRESU": "mmHg",
    "VSSTRESC": "89",
    "VSSTRESN": 89.0,
    "VSSTRESU": "mmHg",
    "VSSTAT": "",
    "VSLOC": "",
    "VSBLFL": "",
    "VISITNUM": 201.0,
    "VISIT": "RETRIEVAL",
    "VISITDY": 168.0,
    "VSDTC": "2013-02-18",
    "VSDY": 198.0,
    "VSTPT": "AFTER LYING DOWN FOR 5 MINUTES",
    "VSTPTNUM": 815.0,
    "VSELTM": "PT5M",
    "VSTPTREF": "PATIENT SUPINE"
  },
  {
    "STUDYID": "CDISCPILOT01",
    "DOMAIN": "VS",
    "USUBJID": "01-701-1023",
    "VSSEQ": 20.0,
    "VSTESTCD": "DIABP",
    "VSTEST": "Diastolic Blood Pressure",
    "VSPOS": "STANDING",
    "VSORRES": "86",
    "VSORRESU": "mmHg",
    "VSSTRESC": "86",
    "VSSTRESN": 86.0,
    "VSSTRESU": "mmHg",
    "VSSTAT": "",
    "VSLOC": "",
    "VSBLFL": "",
    "VISITNUM": 201.0,
    "VISIT": "RETRIEVAL",
    "VISITDY": 168.0,
    "VSDTC": "2013-02-18",
    "VSDY": 198.0,
    "VSTPT": "AFTER STANDING FOR 1 MINUTE",
    "VSTPTNUM": 816.0,
    "VSELTM": "PT1M",
    "VSTPTREF": "PATIENT STANDING"
  },
  {
    "STUDYID": "CDISCPILOT01",
    "DOMAIN": "VS",
    "USUBJID": "01-701-1023",
    "VSSEQ": 21.0,
    "VSTESTCD": "DIABP",
    "VSTEST": "Diastolic Blood Pressure",
    "VSPOS": "STANDING",
    "VSORRES": "84",
    "VSORRESU": "mmHg",
    "VSSTRESC": "84",
    "VSSTRESN": 84.0,
    "VSSTRESU": "mmHg",
    "VSSTAT": "",
    "VSLOC": "",
    "VSBLFL": "",
    "VISITNUM": 201.0,
    "VISIT": "RETRIEVAL",
    "VISITDY": 168.0,
    "VSDTC": "2013-02-18",
    "VSDY": 198.0,
    "VSTPT": "AFTER STANDING FOR 3 MINUTES",
    "VSTPTNUM": 817.0,
    "VSELTM": "PT3M",
    "VSTPTREF": "PATIENT STANDING"
  },
  {
    "STUDYID": "CDISCPILOT01",
    "DOMAIN": "VS",
    "USUBJID": "01-701-1023",
    "VSSEQ": 22.0,
    "VSTESTCD": "HEIGHT",
    "VSTEST": "Height",
    "VSPOS": "",
    "VSORRES": "64.0",
    "VSORRESU": "IN",
    "VSSTRESC": "162.56",
    "VSSTRESN": 162.56,
    "VSSTRESU": "cm",
    "VSSTAT": "",
    "VSLOC": "",
    "VSBLFL": "",
    "VISITNUM": 1.0,
    "VISIT": "SCREENING 1",
    "VISITDY": -7.0,
    "VSDTC": "2012-07-22",
    "VSDY": -14.0,
    "VSTPT": "",
    "VSTPTNUM": "",
    "VSELTM": "",
    "VSTPTREF": ""
  },
  {
    "STUDYID": "CDISCPILOT01",
    "DOMAIN": "VS",
    "USUBJID": "01-701-1023",
    "VSSEQ": 23.0,
    "VSTESTCD": "PULSE",
    "VSTEST": "Pulse Rate",
    "VSPOS": "SUPINE",
    "VSORRES": "65",
    "VSORRESU": "BEATS/MIN",
    "VSSTRESC": "65",
    "VSSTRESN": 65.0,
    "VSSTRESU": "BEATS/MIN",
    "VSSTAT": "",
    "VSLOC": "",
    "VSBLFL": "",
    "VISITNUM": 1.0,
    "VISIT": "SCREENING 1",
    "VISITDY": -7.0,
    "VSDTC": "2012-07-22",
    "VSDY": -14.0,
    "VSTPT": "AFTER LYING DOWN FOR 5 MINUTES",
    "VSTPTNUM": 815.0,
    "VSELTM": "PT5M",
    "VSTPTREF": "PATIENT SUPINE"
  },
  {
    "STUDYID": "CDISCPILOT01",
    "DOMAIN": "VS",
    "USUBJID": "01-701-1023",
    "VSSEQ": 24.0,
    "VSTESTCD": "PULSE",
    "VSTEST": "Pulse Rate",
    "VSPOS": "STANDING",
    "VSORRES": "78",
    "VSORRESU": "BEATS/MIN",
    "VSSTRESC": "78",
    "VSSTRESN": 78.0,
    "VSSTRESU": "BEATS/MIN",
    "VSSTAT": "",
    "VSLOC": "",
    "VSBLFL": "",
    "VISITNUM": 1.0,
    "VISIT": "SCREENING 1",
    "VISITDY": -7.0,
    "VSDTC": "2012-07-22",
    "VSDY": -14.0,
    "VSTPT": "AFTER STANDING FOR 1 MINUTE",
    "VSTPTNUM": 816.0,
    "VSELTM": "PT1M",
    "VSTPTREF": "PATIENT STANDING"
  },
  {
    "STUDYID": "CDISCPILOT01",
    "DOMAIN": "VS",
    "USUBJID": "01-701-1023",
    "VSSEQ": 25.0,
    "VSTESTCD": "PULSE",
    "VSTEST": "Pulse Rate",
    "VSPOS": "STANDING",
    "VSORRES": "74",
    "VSORRESU": "BEATS/MIN",
    "VSSTRESC": "74",
    "VSSTRESN": 74.0,
    "VSSTRESU": "BEATS/MIN",
    "VSSTAT": "",
    "VSLOC": "",
    "VSBLFL": "",
    "VISITNUM": 1.0,
    "VISIT": "SCREENING 1",
    "VISITDY": -7.0,
    "VSDTC": "2012-07-22",
    "VSDY": -14.0,
    "VSTPT": "AFTER STANDING FOR 3 MINUTES",
    "VSTPTNUM": 817.0,
    "VSELTM": "PT3M",
    "VSTPTREF": "PATIENT STANDING"
  },
  {
    "STUDYID": "CDISCPILOT01",
    "DOMAIN": "VS",
    "USUBJID": "01-701-1023",
    "VSSEQ": 26.0,
    "VSTESTCD": "PULSE",
    "VSTEST": "Pulse Rate",
    "VSPOS": "SUPINE",
    "VSORRES": "79",
    "VSORRESU": "BEATS/MIN",
    "VSSTRESC": "79",
    "VSSTRESN": 79.0,
    "VSSTRESU": "BEATS/MIN",
    "VSSTAT": "",
    "VSLOC": "",
    "VSBLFL": "",
    "VISITNUM": 2.0,
    "VISIT": "SCREENING 2",
    "VISITDY": -1.0,
    "VSDTC": "2012-08-03",
    "VSDY": -2.0,
    "VSTPT": "AFTER LYING DOWN FOR 5 MINUTES",
    "VSTPTNUM": 815.0,
    "VSELTM": "PT5M",
    "VSTPTREF": "PATIENT SUPINE"
  },
  {
    "STUDYID": "CDISCPILOT01",
    "DOMAIN": "VS",
    "USUBJID": "01-701-1023",
    "VSSEQ": 27.0,
    "VSTESTCD": "PULSE",
    "VSTEST": "Pulse Rate",
    "VSPOS": "STANDING",
    "VSORRES": "91",
    "VSORRESU": "BEATS/MIN",
    "VSSTRESC": "91",
    "VSSTRESN": 91.0,
    "VSSTRESU": "BEATS/MIN",
    "VSSTAT": "",
    "VSLOC": "",
    "VSBLFL": "",
    "VISITNUM": 2.0,
    "VISIT": "SCREENING 2",
    "VISITDY": -1.0,
    "VSDTC": "2012-08-03",
    "VSDY": -2.0,
    "VSTPT": "AFTER STANDING FOR 1 MINUTE",
    "VSTPTNUM": 816.0,
    "VSELTM": "PT1M",
    "VSTPTREF": "PATIENT STANDING"
  },
  {
    "STUDYID": "CDISCPILOT01",
    "DOMAIN": "VS",
    "USUBJID": "01-701-1023",
    "VSSEQ": 28.0,
    "VSTESTCD": "PULSE",
    "VSTEST": "Pulse Rate",
    "VSPOS": "STANDING",
    "VSORRES": "92",
    "VSORRESU": "BEATS/MIN",
    "VSSTRESC": "92",
    "VSSTRESN": 92.0,
    "VSSTRESU": "BEATS/MIN",
    "VSSTAT": "",
    "VSLOC": "",
    "VSBLFL": "",
    "VISITNUM": 2.0,
    "VISIT": "SCREENING 2",
    "VISITDY": -1.0,
    "VSDTC": "2012-08-03",
    "VSDY": -2.0,
    "VSTPT": "AFTER STANDING FOR 3 MINUTES",
    "VSTPTNUM": 817.0,
    "VSELTM": "PT3M",
    "VSTPTREF": "PATIENT STANDING"
  },
  {
    "STUDYID": "CDISCPILOT01",
    "DOMAIN": "VS",
    "USUBJID": "01-701-1023",
    "VSSEQ": 29.0,
    "VSTESTCD": "PULSE",
    "VSTEST": "Pulse Rate",
    "VSPOS": "SUPINE",
    "VSORRES": "68",
    "VSORRESU": "BEATS/MIN",
    "VSSTRESC": "68",
    "VSSTRESN": 68.0,
    "VSSTRESU": "BEATS/MIN",
    "VSSTAT": "",
    "VSLOC": "",
    "VSBLFL": "Y",
    "VISITNUM": 3.0,
    "VISIT": "BASELINE",
    "VISITDY": 1.0,
    "VSDTC": "2012-08-05",
    "VSDY": 1.0,
    "VSTPT": "AFTER LYING DOWN FOR 5 MINUTES",
    "VSTPTNUM": 815.0,
    "VSELTM": "PT5M",
    "VSTPTREF": "PATIENT SUPINE"
  },
  {
    "STUDYID": "CDISCPILOT01",
    "DOMAIN": "VS",
    "USUBJID": "01-701-1023",
    "VSSEQ": 30.0,
    "VSTESTCD": "PULSE",
    "VSTEST": "Pulse Rate",
    "VSPOS": "STANDING",
    "VSORRES": "80",
    "VSORRESU": "BEATS/MIN",
    "VSSTRESC": "80",
    "VSSTRESN": 80.0,
    "VSSTRESU": "BEATS/MIN",
    "VSSTAT": "",
    "VSLOC": "",
    "VSBLFL": "Y",
    "VISITNUM": 3.0,
    "VISIT": "BASELINE",
    "VISITDY": 1.0,
    "VSDTC": "2012-08-05",
    "VSDY": 1.0,
    "VSTPT": "AFTER STANDING FOR 1 MINUTE",
    "VSTPTNUM": 816.0,
    "VSELTM": "PT1M",
    "VSTPTREF": "PATIENT STANDING"
  },
  {
    "STUDYID": "CDISCPILOT01",
    "DOMAIN": "VS",
    "USUBJID": "01-701-1023",
    "VSSEQ": 31.0,
    "VSTESTCD": "PULSE",
    "VSTEST": "Pulse Rate",
    "VSPOS": "STANDING",
    "VSORRES": "76",
    "VSORRESU": "BEATS/MIN",
    "VSSTRESC": "76",
    "VSSTRESN": 76.0,
    "VSSTRESU": "BEATS/MIN",
    "VSSTAT": "",
    "VSLOC": "",
    "VSBLFL": "Y",
    "VISITNUM": 3.0,
    "VISIT": "BASELINE",
    "VISITDY": 1.0,
    "VSDTC": "2012-08-05",
    "VSDY": 1.0,
    "VSTPT": "AFTER STANDING FOR 3 MINUTES",
    "VSTPTNUM": 817.0,
    "VSELTM": "PT3M",
    "VSTPTREF": "PATIENT STANDING"
  },
  {
    "STUDYID": "CDISCPILOT01",
    "DOMAIN": "VS",
    "USUBJID": "01-701-1023",
    "VSSEQ": 32.0,
    "VSTESTCD": "PULSE",
    "VSTEST": "Pulse Rate",
    "VSPOS": "SUPINE",
    "VSORRES": "71",
    "VSORRESU": "BEATS/MIN",
    "VSSTRESC": "71",
    "VSSTRESN": 71.0,
    "VSSTRESU": "BEATS/MIN",
    "VSSTAT": "",
    "VSLOC": "",
    "VSBLFL": "",
    "VISITNUM": 3.5,
    "VISIT": "AMBUL ECG PLACEMENT",
    "VISITDY": 13.0,
    "VSDTC": "2012-08-26",
    "VSDY": 22.0,
    "VSTPT": "AFTER LYING DOWN FOR 5 MINUTES",
    "VSTPTNUM": 815.0,
    "VSELTM": "PT5M",
    "VSTPTREF": "PATIENT SUPINE"
  },
  {
    "STUDYID": "CDISCPILOT01",
    "DOMAIN": "VS",
    "USUBJID": "01-701-1023",
    "VSSEQ": 33.0,
    "VSTESTCD": "PULSE",
    "VSTEST": "Pulse Rate",
    "VSPOS": "STANDING",
    "VSORRES": "79",
    "VSORRESU": "BEATS/MIN",
    "VSSTRESC": "79",
    "VSSTRESN": 79.0,
    "VSSTRESU": "BEATS/MIN",
    "VSSTAT": "",
    "VSLOC": "",
    "VSBLFL": "",
    "VISITNUM": 3.5,
    "VISIT": "AMBUL ECG PLACEMENT",
    "VISITDY": 13.0,
    "VSDTC": "2012-08-26",
    "VSDY": 22.0,
    "VSTPT": "AFTER STANDING FOR 1 MINUTE",
    "VSTPTNUM": 816.0,
    "VSELTM": "PT1M",
    "VSTPTREF": "PATIENT STANDING"
  },
  {
    "STUDYID": "CDISCPILOT01",
    "DOMAIN": "VS",
    "USUBJID": "01-701-1023",
    "VSSEQ": 34.0,
    "VSTESTCD": "PULSE",
    "VSTEST": "Pulse Rate",
    "VSPOS": "STANDING",
    "VSORRES": "77",
    "VSORRESU": "BEATS/MIN",
    "VSSTRESC": "77",
    "VSSTRESN": 77.0,
    "VSSTRESU": "BEATS/MIN",
    "VSSTAT": "",
    "VSLOC": "",
    "VSBLFL": "",
    "VISITNUM": 3.5,
    "VISIT": "AMBUL ECG PLACEMENT",
    "VISITDY": 13.0,
    "VSDTC": "2012-08-26",
    "VSDY": 22.0,
    "VSTPT": "AFTER STANDING FOR 3 MINUTES",
    "VSTPTNUM": 817.0,
    "VSELTM": "PT3M",
    "VSTPTREF": "PATIENT STANDING"
  },
  {
    "STUDYID": "CDISCPILOT01",
    "DOMAIN": "VS",
    "USUBJID": "01-701-1023",
    "VSSEQ": 35.0,
    "VSTESTCD": "PULSE",
    "VSTEST": "Pulse Rate",
    "VSPOS": "SUPINE",
    "VSORRES": "84",
    "VSORRESU": "BEATS/MIN",
    "VSSTRESC": "84",
    "VSSTRESN": 84.0,
    "VSSTRESU": "BEATS/MIN",
    "VSSTAT": "",
    "VSLOC": "",
    "VSBLFL": "",
    "VISITNUM": 4.0,
    "VISIT": "WEEK 2",
    "VISITDY": 14.0,
    "VSDTC": "2012-08-27",
    "VSDY": 23.0,
    "VSTPT": "AFTER LYING DOWN FOR 5 MINUTES",
    "VSTPTNUM": 815.0,
    "VSELTM": "PT5M",
    "VSTPTREF": "PATIENT SUPINE"
  },
  {
    "STUDYID": "CDISCPILOT01",
    "DOMAIN": "VS",
    "USUBJID": "01-701-1023",
    "VSSEQ": 36.0,
    "VSTESTCD": "PULSE",
    "VSTEST": "Pulse Rate",
    "VSPOS": "STANDING",
    "VSORRES": "92",
    "VSORRESU": "BEATS/MIN",
    "VSSTRESC": "92",
    "VSSTRESN": 92.0,
    "VSSTRESU": "BEATS/MIN",
    "VSSTAT": "",
    "VSLOC": "",
    "VSBLFL": "",
    "VISITNUM": 4.0,
    "VISIT": "WEEK 2",
    "VISITDY": 14.0,
    "VSDTC": "2012-08-27",
    "VSDY": 23.0,
    "VSTPT": "AFTER STANDING FOR 1 MINUTE",
    "VSTPTNUM": 816.0,
    "VSELTM": "PT1M",
    "VSTPTREF": "PATIENT STANDING"
  },
  {
    "STUDYID": "CDISCPILOT01",
    "DOMAIN": "VS",
    "USUBJID": "01-701-1023",
    "VSSEQ": 37.0,
    "VSTESTCD": "PULSE",
    "VSTEST": "Pulse Rate",
    "VSPOS": "STANDING",
    "VSORRES": "94",
    "VSORRESU": "BEATS/MIN",
    "VSSTRESC": "94",
    "VSSTRESN": 94.0,
    "VSSTRESU": "BEATS/MIN",
    "VSSTAT": "",
    "VSLOC": "",
    "VSBLFL": "",
    "VISITNUM": 4.0,
    "VISIT": "WEEK 2",
    "VISITDY": 14.0,
    "VSDTC": "2012-08-27",
    "VSDY": 23.0,
    "VSTPT": "AFTER STANDING FOR 3 MINUTES",
    "VSTPTNUM": 817.0,
    "VSELTM": "PT3M",
    "VSTPTREF": "PATIENT STANDING"
  },
  {
    "STUDYID": "CDISCPILOT01",
    "DOMAIN": "VS",
    "USUBJID": "01-701-1023",
    "VSSEQ": 38.0,
    "VSTESTCD": "PULSE",
    "VSTEST": "Pulse Rate",
    "VSPOS": "SUPINE",
    "VSORRES": "64",
    "VSORRESU": "BEATS/MIN",
    "VSSTRESC": "64",
    "VSSTRESN": 64.0,
    "VSSTRESU": "BEATS/MIN",
    "VSSTAT": "",
    "VSLOC": "",
    "VSBLFL": "",
    "VISITNUM": 5.0,
    "VISIT": "WEEK 4",
    "VISITDY": 28.0,
    "VSDTC": "2012-09-02",
    "VSDY": 29.0,
    "VSTPT": "AFTER LYING DOWN FOR 5 MINUTES",
    "VSTPTNUM": 815.0,
    "VSELTM": "PT5M",
    "VSTPTREF": "PATIENT SUPINE"
  },
  {
    "STUDYID": "CDISCPILOT01",
    "DOMAIN": "VS",
    "USUBJID": "01-701-1023",
    "VSSEQ": 39.0,
    "VSTESTCD": "PULSE",
    "VSTEST": "Pulse Rate",
    "VSPOS": "STANDING",
    "VSORRES": "76",
    "VSORRESU": "BEATS/MIN",
    "VSSTRESC": "76",
    "VSSTRESN": 76.0,
    "VSSTRESU": "BEATS/MIN",
    "VSSTAT": "",
    "VSLOC": "",
    "VSBLFL": "",
    "VISITNUM": 5.0,
    "VISIT": "WEEK 4",
    "VISITDY": 28.0,
    "VSDTC": "2012-09-02",
    "VSDY": 29.0,
    "VSTPT": "AFTER STANDING FOR 1 MINUTE",
    "VSTPTNUM": 816.0,
    "VSELTM": "PT1M",
    "VSTPTREF": "PATIENT STANDING"
  },
  {
    "STUDYID": "CDISCPILOT01",
    "DOMAIN": "VS",
    "USUBJID": "01-701-1023",
    "VSSEQ": 40.0,
    "VSTESTCD": "PULSE",
    "VSTEST": "Pulse Rate",
    "VSPOS": "STANDING",
    "VSORRES": "70",
    "VSORRESU": "BEATS/MIN",
    "VSSTRESC": "70",
    "VSSTRESN": 70.0,
    "VSSTRESU": "BEATS/MIN",
    "VSSTAT": "",
    "VSLOC": "",
    "VSBLFL": "",
    "VISITNUM": 5.0,
    "VISIT": "WEEK 4",
    "VISITDY": 28.0,
    "VSDTC": "2012-09-02",
    "VSDY": 29.0,
    "VSTPT": "AFTER STANDING FOR 3 MINUTES",
    "VSTPTNUM": 817.0,
    "VSELTM": "PT3M",
    "VSTPTREF": "PATIENT STANDING"
  },
  {
    "STUDYID": "CDISCPILOT01",
    "DOMAIN": "VS",
    "USUBJID": "01-701-1023",
    "VSSEQ": 41.0,
    "VSTESTCD": "PULSE",
    "VSTEST": "Pulse Rate",
    "VSPOS": "SUPINE",
    "VSORRES": "72",
    "VSORRESU": "BEATS/MIN",
    "VSSTRESC": "72",
    "VSSTRESN": 72.0,
    "VSSTRESU": "BEATS/MIN",
    "VSSTAT": "",
    "VSLOC": "",
    "VSBLFL": "",
    "VISITNUM": 201.0,
    "VISIT": "RETRIEVAL",
    "VISITDY": 168.0,
    "VSDTC": "2013-02-18",
    "VSDY": 198.0,
    "VSTPT": "AFTER LYING DOWN FOR 5 MINUTES",
    "VSTPTNUM": 815.0,
    "VSELTM": "PT5M",
    "VSTPTREF": "PATIENT SUPINE"
  },
  {
    "STUDYID": "CDISCPILOT01",
    "DOMAIN": "VS",
    "USUBJID": "01-701-1023",
    "VSSEQ": 42.0,
    "VSTESTCD": "PULSE",
    "VSTEST": "Pulse Rate",
    "VSPOS": "STANDING",
    "VSORRES": "84",
    "VSORRESU": "BEATS/MIN",
    "VSSTRESC": "84",
    "VSSTRESN": 84.0,
    "VSSTRESU": "BEATS/MIN",
    "VSSTAT": "",
    "VSLOC": "",
    "VSBLFL": "",
    "VISITNUM": 201.0,
    "VISIT": "RETRIEVAL",
    "VISITDY": 168.0,
    "VSDTC": "2013-02-18",
    "VSDY": 198.0,
    "VSTPT": "AFTER STANDING FOR 1 MINUTE",
    "VSTPTNUM": 816.0,
    "VSELTM": "PT1M",
    "VSTPTREF": "PATIENT STANDING"
  },
  {
    "STUDYID": "CDISCPILOT01",
    "DOMAIN": "VS",
    "USUBJID": "01-701-1023",
    "VSSEQ": 43.0,
    "VSTESTCD": "PULSE",
    "VSTEST": "Pulse Rate",
    "VSPOS": "STANDING",
    "VSORRES": "76",
    "VSORRESU": "BEATS/MIN",
    "VSSTRESC": "76",
    "VSSTRESN": 76.0,
    "VSSTRESU": "BEATS/MIN",
    "VSSTAT": "",
    "VSLOC": "",
    "VSBLFL": "",
    "VISITNUM": 201.0,
    "VISIT": "RETRIEVAL",
    "VISITDY": 168.0,
    "VSDTC": "2013-02-18",
    "VSDY": 198.0,
    "VSTPT": "AFTER STANDING FOR 3 MINUTES",
    "VSTPTNUM": 817.0,
    "VSELTM": "PT3M",
    "VSTPTREF": "PATIENT STANDING"
  },
  {
    "STUDYID": "CDISCPILOT01",
    "DOMAIN": "VS",
    "USUBJID": "01-701-1023",
    "VSSEQ": 44.0,
    "VSTESTCD": "SYSBP",
    "VSTEST": "Systolic Blood Pressure",
    "VSPOS": "SUPINE",
    "VSORRES": "130",
    "VSORRESU": "mmHg",
    "VSSTRESC": "130",
    "VSSTRESN": 130.0,
    "VSSTRESU": "mmHg",
    "VSSTAT": "",
    "VSLOC": "",
    "VSBLFL": "",
    "VISITNUM": 1.0,
    "VISIT": "SCREENING 1",
    "VISITDY": -7.0,
    "VSDTC": "2012-07-22",
    "VSDY": -14.0,
    "VSTPT": "AFTER LYING DOWN FOR 5 MINUTES",
    "VSTPTNUM": 815.0,
    "VSELTM": "PT5M",
    "VSTPTREF": "PATIENT SUPINE"
  },
  {
    "STUDYID": "CDISCPILOT01",
    "DOMAIN": "VS",
    "USUBJID": "01-701-1023",
    "VSSEQ": 45.0,
    "VSTESTCD": "SYSBP",
    "VSTEST": "Systolic Blood Pressure",
    "VSPOS": "STANDING",
    "VSORRES": "132",
    "VSORRESU": "mmHg",
    "VSSTRESC": "132",
    "VSSTRESN": 132.0,
    "VSSTRESU": "mmHg",
    "VSSTAT": "",
    "VSLOC": "",
    "VSBLFL": "",
    "VISITNUM": 1.0,
    "VISIT": "SCREENING 1",
    "VISITDY": -7.0,
    "VSDTC": "2012-07-22",
    "VSDY": -14.0,
    "VSTPT": "AFTER STANDING FOR 1 MINUTE",
    "VSTPTNUM": 816.0,
    "VSELTM": "PT1M",
    "VSTPTREF": "PATIENT STANDING"
  },
  {
    "STUDYID": "CDISCPILOT01",
    "DOMAIN": "VS",
    "USUBJID": "01-701-1023",
    "VSSEQ": 46.0,
    "VSTESTCD": "SYSBP",
    "VSTEST": "Systolic Blood Pressure",
    "VSPOS": "STANDING",
    "VSORRES": "140",
    "VSORRESU": "mmHg",
    "VSSTRESC": "140",
    "VSSTRESN": 140.0,
    "VSSTRESU": "mmHg",
    "VSSTAT": "",
    "VSLOC": "",
    "VSBLFL": "",
    "VISITNUM": 1.0,
    "VISIT": "SCREENING 1",
    "VISITDY": -7.0,
    "VSDTC": "2012-07-22",
    "VSDY": -14.0,
    "VSTPT": "AFTER STANDING FOR 3 MINUTES",
    "VSTPTNUM": 817.0,
    "VSELTM": "PT3M",
    "VSTPTREF": "PATIENT STANDING"
  },
  {
    "STUDYID": "CDISCPILOT01",
    "DOMAIN": "VS",
    "USUBJID": "01-701-1023",
    "VSSEQ": 47.0,
    "VSTESTCD": "SYSBP",
    "VSTEST": "Systolic Blood Pressure",
    "VSPOS": "SUPINE",
    "VSORRES": "131",
    "VSORRESU": "mmHg",
    "VSSTRESC": "131",
    "VSSTRESN": 131.0,
    "VSSTRESU": "mmHg",
    "VSSTAT": "",
    "VSLOC": "",
    "VSBLFL": "",
    "VISITNUM": 2.0,
    "VISIT": "SCREENING 2",
    "VISITDY": -1.0,
    "VSDTC": "2012-08-03",
    "VSDY": -2.0,
    "VSTPT": "AFTER LYING DOWN FOR 5 MINUTES",
    "VSTPTNUM": 815.0,
    "VSELTM": "PT5M",
    "VSTPTREF": "PATIENT SUPINE"
  },
  {
    "STUDYID": "CDISCPILOT01",
    "DOMAIN": "VS",
    "USUBJID": "01-701-1023",
    "VSSEQ": 48.0,
    "VSTESTCD": "SYSBP",
    "VSTEST": "Systolic Blood Pressure",
    "VSPOS": "STANDING",
    "VSORRES": "129",
    "VSORRESU": "mmHg",
    "VSSTRESC": "129",
    "VSSTRESN": 129.0,
    "VSSTRESU": "mmHg",
    "VSSTAT": "",
    "VSLOC": "",
    "VSBLFL": "",
    "VISITNUM": 2.0,
    "VISIT": "SCREENING 2",
    "VISITDY": -1.0,
    "VSDTC": "2012-08-03",
    "VSDY": -2.0,
    "VSTPT": "AFTER STANDING FOR 1 MINUTE",
    "VSTPTNUM": 816.0,
    "VSELTM": "PT1M",
    "VSTPTREF": "PATIENT STANDING"
  },
  {
    "STUDYID": "CDISCPILOT01",
    "DOMAIN": "VS",
    "USUBJID": "01-701-1023",
    "VSSEQ": 49.0,
    "VSTESTCD": "SYSBP",
    "VSTEST": "Systolic Blood Pressure",
    "VSPOS": "STANDING",
    "VSORRES": "138",
    "VSORRESU": "mmHg",
    "VSSTRESC": "138",
    "VSSTRESN": 138.0,
    "VSSTRESU": "mmHg",
    "VSSTAT": "",
    "VSLOC": "",
    "VSBLFL": "",
    "VISITNUM": 2.0,
    "VISIT": "SCREENING 2",
    "VISITDY": -1.0,
    "VSDTC": "2012-08-03",
    "VSDY": -2.0,
    "VSTPT": "AFTER STANDING FOR 3 MINUTES",
    "VSTPTNUM": 817.0,
    "VSELTM": "PT3M",
    "VSTPTREF": "PATIENT STANDING"
  },
  {
    "STUDYID": "CDISCPILOT01",
    "DOMAIN": "VS",
    "USUBJID": "01-701-1023",
    "VSSEQ": 50.0,
    "VSTESTCD": "SYSBP",
    "VSTEST": "Systolic Blood Pressure",
    "VSPOS": "SUPINE",
    "VSORRES": "130",
    "VSORRESU": "mmHg",
    "VSSTRESC": "130",
    "VSSTRESN": 130.0,
    "VSSTRESU": "mmHg",
    "VSSTAT": "",
    "VSLOC": "",
    "VSBLFL": "Y",
    "VISITNUM": 3.0,
    "VISIT": "BASELINE",
    "VISITDY": 1.0,
    "VSDTC": "2012-08-05",
    "VSDY": 1.0,
    "VSTPT": "AFTER LYING DOWN FOR 5 MINUTES",
    "VSTPTNUM": 815.0,
    "VSELTM": "PT5M",
    "VSTPTREF": "PATIENT SUPINE"
  },
  {
    "STUDYID": "CDISCPILOT01",
    "DOMAIN": "VS",
    "USUBJID": "01-701-1023",
    "VSSEQ": 51.0,
    "VSTESTCD": "SYSBP",
    "VSTEST": "Systolic Blood Pressure",
    "VSPOS": "STANDING",
    "VSORRES": "132",
    "VSORRESU": "mmHg",
    "VSSTRESC": "132",
    "VSSTRESN": 132.0,
    "VSSTRESU": "mmHg",
    "VSSTAT": "",
    "VSLOC": "",
    "VSBLFL": "Y",
    "VISITNUM": 3.0,
    "VISIT": "BASELINE",
    "VISITDY": 1.0,
    "VSDTC": "2012-08-05",
    "VSDY": 1.0,
    "VSTPT": "AFTER STANDING FOR 1 MINUTE",
    "VSTPTNUM": 816.0,
    "VSELTM": "PT1M",
    "VSTPTREF": "PATIENT STANDING"
  },
  {
    "STUDYID": "CDISCPILOT01",
    "DOMAIN": "VS",
    "USUBJID": "01-701-1023",
    "VSSEQ": 52.0,
    "VSTESTCD": "SYSBP",
    "VSTEST": "Systolic Blood Pressure",
    "VSPOS": "STANDING",
    "VSORRES": "132",
    "VSORRESU": "mmHg",
    "VSSTRESC": "132",
    "VSSTRESN": 132.0,
    "VSSTRESU": "mmHg",
    "VSSTAT": "",
    "VSLOC": "",
    "VSBLFL": "Y",
    "VISITNUM": 3.0,
    "VISIT": "BASELINE",
    "VISITDY": 1.0,
    "VSDTC": "2012-08-05",
    "VSDY": 1.0,
    "VSTPT": "AFTER STANDING FOR 3 MINUTES",
    "VSTPTNUM": 817.0,
    "VSELTM": "PT3M",
    "VSTPTREF": "PATIENT STANDING"
  },
  {
    "STUDYID": "CDISCPILOT01",
    "DOMAIN": "VS",
    "USUBJID": "01-701-1023",
    "VSSEQ": 53.0,
    "VSTESTCD": "SYSBP",
    "VSTEST": "Systolic Blood Pressure",
    "VSPOS": "SUPINE",
    "VSORRES": "133",
    "VSORRESU": "mmHg",
    "VSSTRESC": "133",
    "VSSTRESN": 133.0,
    "VSSTRESU": "mmHg",
    "VSSTAT": "",
    "VSLOC": "",
    "VSBLFL": "",
    "VISITNUM": 3.5,
    "VISIT": "AMBUL ECG PLACEMENT",
    "VISITDY": 13.0,
    "VSDTC": "2012-08-26",
    "VSDY": 22.0,
    "VSTPT": "AFTER LYING DOWN FOR 5 MINUTES",
    "VSTPTNUM": 815.0,
    "VSELTM": "PT5M",
    "VSTPTREF": "PATIENT SUPINE"
  },
  {
    "STUDYID": "CDISCPILOT01",
    "DOMAIN": "VS",
    "USUBJID": "01-701-1023",
    "VSSEQ": 54.0,
    "VSTESTCD": "SYSBP",
    "VSTEST": "Systolic Blood Pressure",
    "VSPOS": "STANDING",
    "VSORRES": "130",
    "VSORRESU": "mmHg",
    "VSSTRESC": "130",
    "VSSTRESN": 130.0,
    "VSSTRESU": "mmHg",
    "VSSTAT": "",
    "VSLOC": "",
    "VSBLFL": "",
    "VISITNUM": 3.5,
    "VISIT": "AMBUL ECG PLACEMENT",
    "VISITDY": 13.0,
    "VSDTC": "2012-08-26",
    "VSDY": 22.0,
    "VSTPT": "AFTER STANDING FOR 1 MINUTE",
    "VSTPTNUM": 816.0,
    "VSELTM": "PT1M",
    "VSTPTREF": "PATIENT STANDING"
  },
  {
    "STUDYID": "CDISCPILOT01",
    "DOMAIN": "VS",
    "USUBJID": "01-701-1023",
    "VSSEQ": 55.0,
    "VSTESTCD": "SYSBP",
    "VSTEST": "Systolic Blood Pressure",
    "VSPOS": "STANDING",
    "VSORRES": "138",
    "VSORRESU": "mmHg",
    "VSSTRESC": "138",
    "VSSTRESN": 138.0,
    "VSSTRESU": "mmHg",
    "VSSTAT": "",
    "VSLOC": "",
    "VSBLFL": "",
    "VISITNUM": 3.5,
    "VISIT": "AMBUL ECG PLACEMENT",
    "VISITDY": 13.0,
    "VSDTC": "2012-08-26",
    "VSDY": 22.0,
    "VSTPT": "AFTER STANDING FOR 3 MINUTES",
    "VSTPTNUM": 817.0,
    "VSELTM": "PT3M",
    "VSTPTREF": "PATIENT STANDING"
  },
  {
    "STUDYID": "CDISCPILOT01",
    "DOMAIN": "VS",
    "USUBJID": "01-701-1023",
    "VSSEQ": 56.0,
    "VSTESTCD": "SYSBP",
    "VSTEST": "Systolic Blood Pressure",
    "VSPOS": "SUPINE",
    "VSORRES": "122",
    "VSORRESU": "mmHg",
    "VSSTRESC": "122",
    "VSSTRESN": 122.0,
    "VSSTRESU": "mmHg",
    "VSSTAT": "",
    "VSLOC": "",
    "VSBLFL": "",
    "VISITNUM": 4.0,
    "VISIT": "WEEK 2",
    "VISITDY": 14.0,
    "VSDTC": "2012-08-27",
    "VSDY": 23.0,
    "VSTPT": "AFTER LYING DOWN FOR 5 MINUTES",
    "VSTPTNUM": 815.0,
    "VSELTM": "PT5M",
    "VSTPTREF": "PATIENT SUPINE"
  },
  {
    "STUDYID": "CDISCPILOT01",
    "DOMAIN": "VS",
    "USUBJID": "01-701-1023",
    "VSSEQ": 57.0,
    "VSTESTCD": "SYSBP",
    "VSTEST": "Systolic Blood Pressure",
    "VSPOS": "STANDING",
    "VSORRES": "130",
    "VSORRESU": "mmHg",
    "VSSTRESC": "130",
    "VSSTRESN": 130.0,
    "VSSTRESU": "mmHg",
    "VSSTAT": "",
    "VSLOC": "",
    "VSBLFL": "",
    "VISITNUM": 4.0,
    "VISIT": "WEEK 2",
    "VISITDY": 14.0,
    "VSDTC": "2012-08-27",
    "VSDY": 23.0,
    "VSTPT": "AFTER STANDING FOR 1 MINUTE",
    "VSTPTNUM": 816.0,
    "VSELTM": "PT1M",
    "VSTPTREF": "PATIENT STANDING"
  },
  {
    "STUDYID": "CDISCPILOT01",
    "DOMAIN": "VS",
    "USUBJID": "01-701-1023",
    "VSSEQ": 58.0,
    "VSTESTCD": "SYSBP",
    "VSTEST": "Systolic Blood Pressure",
    "VSPOS": "STANDING",
    "VSORRES": "138",
    "VSORRESU": "mmHg",
    "VSSTRESC": "138",
    "VSSTRESN": 138.0,
    "VSSTRESU": "mmHg",
    "VSSTAT": "",
    "VSLOC": "",
    "VSBLFL": "",
    "VISITNUM": 4.0,
    "VISIT": "WEEK 2",
    "VISITDY": 14.0,
    "VSDTC": "2012-08-27",
    "VSDY": 23.0,
    "VSTPT": "AFTER STANDING FOR 3 MINUTES",
    "VSTPTNUM": 817.0,
    "VSELTM": "PT3M",
    "VSTPTREF": "PATIENT STANDING"
  },
  {
    "STUDYID": "CDISCPILOT01",
    "DOMAIN": "VS",
    "USUBJID": "01-701-1023",
    "VSSEQ": 59.0,
    "VSTESTCD": "SYSBP",
    "VSTEST": "Systolic Blood Pressure",
    "VSPOS": "SUPINE",
    "VSORRES": "130",
    "VSORRESU": "mmHg",
    "VSSTRESC": "130",
    "VSSTRESN": 130.0,
    "VSSTRESU": "mmHg",
    "VSSTAT": "",
    "VSLOC": "",
    "VSBLFL": "",
    "VISITNUM": 5.0,
    "VISIT": "WEEK 4",
    "VISITDY": 28.0,
    "VSDTC": "2012-09-02",
    "VSDY": 29.0,
    "VSTPT": "AFTER LYING DOWN FOR 5 MINUTES",
    "VSTPTNUM": 815.0,
    "VSELTM": "PT5M",
    "VSTPTREF": "PATIENT SUPINE"
  },
  {
    "STUDYID": "CDISCPILOT01",
    "DOMAIN": "VS",
    "USUBJID": "01-701-1023",
    "VSSEQ": 60.0,
    "VSTESTCD": "SYSBP",
    "VSTEST": "Systolic Blood Pressure",
    "VSPOS": "STANDING",
    "VSORRES": "134",
    "VSORRESU": "mmHg",
    "VSSTRESC": "134",
    "VSSTRESN": 134.0,
    "VSSTRESU": "mmHg",
    "VSSTAT": "",
    "VSLOC": "",
    "VSBLFL": "",
    "VISITNUM": 5.0,
    "VISIT": "WEEK 4",
    "VISITDY": 28.0,
    "VSDTC": "2012-09-02",
    "VSDY": 29.0,
    "VSTPT": "AFTER STANDING FOR 1 MINUTE",
    "VSTPTNUM": 816.0,
    "VSELTM": "PT1M",
    "VSTPTREF": "PATIENT STANDING"
  },
  {
    "STUDYID": "CDISCPILOT01",
    "DOMAIN": "VS",
    "USUBJID": "01-701-1023",
    "VSSEQ": 61.0,
    "VSTESTCD": "SYSBP",
    "VSTEST": "Systolic Blood Pressure",
    "VSPOS": "STANDING",
    "VSORRES": "136",
    "VSORRESU": "mmHg",
    "VSSTRESC": "136",
    "VSSTRESN": 136.0,
    "VSSTRESU": "mmHg",
    "VSSTAT": "",
    "VSLOC": "",
    "VSBLFL": "",
    "VISITNUM": 5.0,
    "VISIT": "WEEK 4",
    "VISITDY": 28.0,
    "VSDTC": "2012-09-02",
    "VSDY": 29.0,
    "VSTPT": "AFTER STANDING FOR 3 MINUTES",
    "VSTPTNUM": 817.0,
    "VSELTM": "PT3M",
    "VSTPTREF": "PATIENT STANDING"
  },
  {
    "STUDYID": "CDISCPILOT01",
    "DOMAIN": "VS",
    "USUBJID": "01-701-1023",
    "VSSEQ": 62.0,
    "VSTESTCD": "SYSBP",
    "VSTEST": "Systolic Blood Pressure",
    "VSPOS": "SUPINE",
    "VSORRES": "125",
    "VSORRESU": "mmHg",
    "VSSTRESC": "125",
    "VSSTRESN": 125.0,
    "VSSTRESU": "mmHg",
    "VSSTAT": "",
    "VSLOC": "",
    "VSBLFL": "",
    "VISITNUM": 201.0,
    "VISIT": "RETRIEVAL",
    "VISITDY": 168.0,
    "VSDTC": "2013-02-18",
    "VSDY": 198.0,
    "VSTPT": "AFTER LYING DOWN FOR 5 MINUTES",
    "VSTPTNUM": 815.0,
    "VSELTM": "PT5M",
    "VSTPTREF": "PATIENT SUPINE"
  },
  {
    "STUDYID": "CDISCPILOT01",
    "DOMAIN": "VS",
    "USUBJID": "01-701-1023",
    "VSSEQ": 63.0,
    "VSTESTCD": "SYSBP",
    "VSTEST": "Systolic Blood Pressure",
    "VSPOS": "STANDING",
    "VSORRES": "110",
    "VSORRESU": "mmHg",
    "VSSTRESC": "110",
    "VSSTRESN": 110.0,
    "VSSTRESU": "mmHg",
    "VSSTAT": "",
    "VSLOC": "",
    "VSBLFL": "",
    "VISITNUM": 201.0,
    "VISIT": "RETRIEVAL",
    "VISITDY": 168.0,
    "VSDTC": "2013-02-18",
    "VSDY": 198.0,
    "VSTPT": "AFTER STANDING FOR 1 MINUTE",
    "VSTPTNUM": 816.0,
    "VSELTM": "PT1M",
    "VSTPTREF": "PATIENT STANDING"
  },
  {
    "STUDYID": "CDISCPILOT01",
    "DOMAIN": "VS",
    "USUBJID": "01-701-1023",
    "VSSEQ": 64.0,
    "VSTESTCD": "SYSBP",
    "VSTEST": "Systolic Blood Pressure",
    "VSPOS": "STANDING",
    "VSORRES": "130",
    "VSORRESU": "mmHg",
    "VSSTRESC": "130",
    "VSSTRESN": 130.0,
    "VSSTRESU": "mmHg",
    "VSSTAT": "",
    "VSLOC": "",
    "VSBLFL": "",
    "VISITNUM": 201.0,
    "VISIT": "RETRIEVAL",
    "VISITDY": 168.0,
    "VSDTC": "2013-02-18",
    "VSDY": 198.0,
    "VSTPT": "AFTER STANDING FOR 3 MINUTES",
    "VSTPTNUM": 817.0,
    "VSELTM": "PT3M",
    "VSTPTREF": "PATIENT STANDING"
  },
  {
    "STUDYID": "CDISCPILOT01",
    "DOMAIN": "VS",
    "USUBJID": "01-701-1023",
    "VSSEQ": 65.0,
    "VSTESTCD": "TEMP",
    "VSTEST": "Temperature",
    "VSPOS": "",
    "VSORRES": "97.8",
    "VSORRESU": "F",
    "VSSTRESC": "36.56",
    "VSSTRESN": 36.56,
    "VSSTRESU": "C",
    "VSSTAT": "",
    "VSLOC": "ORAL CAVITY",
    "VSBLFL": "",
    "VISITNUM": 1.0,
    "VISIT": "SCREENING 1",
    "VISITDY": -7.0,
    "VSDTC": "2012-07-22",
    "VSDY": -14.0,
    "VSTPT": "",
    "VSTPTNUM": "",
    "VSELTM": "",
    "VSTPTREF": ""
  },
  {
    "STUDYID": "CDISCPILOT01",
    "DOMAIN": "VS",
    "USUBJID": "01-701-1023",
    "VSSEQ": 66.0,
    "VSTESTCD": "TEMP",
    "VSTEST": "Temperature",
    "VSPOS": "",
    "VSORRES": "97.8",
    "VSORRESU": "F",
    "VSSTRESC": "36.56",
    "VSSTRESN": 36.56,
    "VSSTRESU": "C",
    "VSSTAT": "",
    "VSLOC": "ORAL CAVITY",
    "VSBLFL": "",
    "VISITNUM": 2.0,
    "VISIT": "SCREENING 2",
    "VISITDY": -1.0,
    "VSDTC": "2012-08-03",
    "VSDY": -2.0,
    "VSTPT": "",
    "VSTPTNUM": "",
    "VSELTM": "",
    "VSTPTREF": ""
  },
  {
    "STUDYID": "CDISCPILOT01",
    "DOMAIN": "VS",
    "USUBJID": "01-701-1023",
    "VSSEQ": 67.0,
    "VSTESTCD": "TEMP",
    "VSTEST": "Temperature",
    "VSPOS": "",
    "VSORRES": "97.3",
    "VSORRESU": "F",
    "VSSTRESC": "36.28",
    "VSSTRESN": 36.28,
    "VSSTRESU": "C",
    "VSSTAT": "",
    "VSLOC": "ORAL CAVITY",
    "VSBLFL": "Y",
    "VISITNUM": 3.0,
    "VISIT": "BASELINE",
    "VISITDY": 1.0,
    "VSDTC": "2012-08-05",
    "VSDY": 1.0,
    "VSTPT": "",
    "VSTPTNUM": "",
    "VSELTM": "",
    "VSTPTREF": ""
  },
  {
    "STUDYID": "CDISCPILOT01",
    "DOMAIN": "VS",
    "USUBJID": "01-701-1023",
    "VSSEQ": 68.0,
    "VSTESTCD": "TEMP",
    "VSTEST": "Temperature",
    "VSPOS": "",
    "VSORRES": "97.6",
    "VSORRESU": "F",
    "VSSTRESC": "36.44",
    "VSSTRESN": 36.44,
    "VSSTRESU": "C",
    "VSSTAT": "",
    "VSLOC": "ORAL CAVITY",
    "VSBLFL": "",
    "VISITNUM": 3.5,
    "VISIT": "AMBUL ECG PLACEMENT",
    "VISITDY": 13.0,
    "VSDTC": "2012-08-26",
    "VSDY": 22.0,
    "VSTPT": "",
    "VSTPTNUM": "",
    "VSELTM": "",
    "VSTPTREF": ""
  },
  {
    "STUDYID": "CDISCPILOT01",
    "DOMAIN": "VS",
    "USUBJID": "01-701-1023",
    "VSSEQ": 69.0,
    "VSTESTCD": "TEMP",
    "VSTEST": "Temperature",
    "VSPOS": "",
    "VSORRES": "98.5",
    "VSORRESU": "F",
    "VSSTRESC": "36.94",
    "VSSTRESN": 36.94,
    "VSSTRESU": "C",
    "VSSTAT": "",
    "VSLOC": "ORAL CAVITY",
    "VSBLFL": "",
    "VISITNUM": 4.0,
    "VISIT": "WEEK 2",
    "VISITDY": 14.0,
    "VSDTC": "2012-08-27",
    "VSDY": 23.0,
    "VSTPT": "",
    "VSTPTNUM": "",
    "VSELTM": "",
    "VSTPTREF": ""
  },
  {
    "STUDYID": "CDISCPILOT01",
    "DOMAIN": "VS",
    "USUBJID": "01-701-1023",
    "VSSEQ": 70.0,
    "VSTESTCD": "TEMP",
    "VSTEST": "Temperature",
    "VSPOS": "",
    "VSORRES": "97.2",
    "VSORRESU": "F",
    "VSSTRESC": "36.22",
    "VSSTRESN": 36.22,
    "VSSTRESU": "C",
    "VSSTAT": "",
    "VSLOC": "ORAL CAVITY",
    "VSBLFL": "",
    "VISITNUM": 5.0,
    "VISIT": "WEEK 4",
    "VISITDY": 28.0,
    "VSDTC": "2012-09-02",
    "VSDY": 29.0,
    "VSTPT": "",
    "VSTPTNUM": "",
    "VSELTM": "",
    "VSTPTREF": ""
  },
  {
    "STUDYID": "CDISCPILOT01",
    "DOMAIN": "VS",
    "USUBJID": "01-701-1023",
    "VSSEQ": 71.0,
    "VSTESTCD": "TEMP",
    "VSTEST": "Temperature",
    "VSPOS": "",
    "VSORRES": "97.8",
    "VSORRESU": "F",
    "VSSTRESC": "36.56",
    "VSSTRESN": 36.56,
    "VSSTRESU": "C",
    "VSSTAT": "",
    "VSLOC": "ORAL CAVITY",
    "VSBLFL": "",
    "VISITNUM": 201.0,
    "VISIT": "RETRIEVAL",
    "VISITDY": 168.0,
    "VSDTC": "2013-02-18",
    "VSDY": 198.0,
    "VSTPT": "",
    "VSTPTNUM": "",
    "VSELTM": "",
    "VSTPTREF": ""
  },
  {
    "STUDYID": "CDISCPILOT01",
    "DOMAIN": "VS",
    "USUBJID": "01-701-1023",
    "VSSEQ": 72.0,
    "VSTESTCD": "WEIGHT",
    "VSTEST": "Weight",
    "VSPOS": "",
    "VSORRES": "173.0",
    "VSORRESU": "LB",
    "VSSTRESC": "78.47",
    "VSSTRESN": 78.47,
    "VSSTRESU": "kg",
    "VSSTAT": "",
    "VSLOC": "",
    "VSBLFL": "",
    "VISITNUM": 1.0,
    "VISIT": "SCREENING 1",
    "VISITDY": -7.0,
    "VSDTC": "2012-07-22",
    "VSDY": -14.0,
    "VSTPT": "",
    "VSTPTNUM": "",
    "VSELTM": "",
    "VSTPTREF": ""
  },
  {
    "STUDYID": "CDISCPILOT01",
    "DOMAIN": "VS",
    "USUBJID": "01-701-1023",
    "VSSEQ": 73.0,
    "VSTESTCD": "WEIGHT",
    "VSTEST": "Weight",
    "VSPOS": "",
    "VSORRES": "177.0",
    "VSORRESU": "LB",
    "VSSTRESC": "80.29",
    "VSSTRESN": 80.29,
    "VSSTRESU": "kg",
    "VSSTAT": "",
    "VSLOC": "",
    "VSBLFL": "Y",
    "VISITNUM": 3.0,
    "VISIT": "BASELINE",
    "VISITDY": 1.0,
    "VSDTC": "2012-08-05",
    "VSDY": 1.0,
    "VSTPT": "",
    "VSTPTNUM": "",
    "VSELTM": "",
    "VSTPTREF": ""
  },
  {
    "STUDYID": "CDISCPILOT01",
    "DOMAIN": "VS",
    "USUBJID": "01-701-1023",
    "VSSEQ": 74.0,
    "VSTESTCD": "WEIGHT",
    "VSTEST": "Weight",
    "VSPOS": "",
    "VSORRES": "178.0",
    "VSORRESU": "LB",
    "VSSTRESC": "80.74",
    "VSSTRESN": 80.74,
    "VSSTRESU": "kg",
    "VSSTAT": "",
    "VSLOC": "",
    "VSBLFL": "",
    "VISITNUM": 4.0,
    "VISIT": "WEEK 2",
    "VISITDY": 14.0,
    "VSDTC": "2012-08-27",
    "VSDY": 23.0,
    "VSTPT": "",
    "VSTPTNUM": "",
    "VSELTM": "",
    "VSTPTREF": ""
  },
  {
    "STUDYID": "CDISCPILOT01",
    "DOMAIN": "VS",
    "USUBJID": "01-701-1023",
    "VSSEQ": 75.0,
    "VSTESTCD": "WEIGHT",
    "VSTEST": "Weight",
    "VSPOS": "",
    "VSORRES": "177.0",
    "VSORRESU": "LB",
    "VSSTRESC": "80.29",
    "VSSTRESN": 80.29,
    "VSSTRESU": "kg",
    "VSSTAT": "",
    "VSLOC": "",
    "VSBLFL": "",
    "VISITNUM": 5.0,
    "VISIT": "WEEK 4",
    "VISITDY": 28.0,
    "VSDTC": "2012-09-02",
    "VSDY": 29.0,
    "VSTPT": "",
    "VSTPTNUM": "",
    "VSELTM": "",
    "VSTPTREF": ""
  },
  {
    "STUDYID": "CDISCPILOT01",
    "DOMAIN": "VS",
    "USUBJID": "01-701-1028",
    "VSSEQ": 1.0,
    "VSTESTCD": "DIABP",
    "VSTEST": "Diastolic Blood Pressure",
    "VSPOS": "SUPINE",
    "VSORRES": "76",
    "VSORRESU": "mmHg",
    "VSSTRESC": "76",
    "VSSTRESN": 76.0,
    "VSSTRESU": "mmHg",
    "VSSTAT": "",
    "VSLOC": "",
    "VSBLFL": "",
    "VISITNUM": 1.0,
    "VISIT": "SCREENING 1",
    "VISITDY": -7.0,
    "VSDTC": "2013-07-11",
    "VSDY": -8.0,
    "VSTPT": "AFTER LYING DOWN FOR 5 MINUTES",
    "VSTPTNUM": 815.0,
    "VSELTM": "PT5M",
    "VSTPTREF": "PATIENT SUPINE"
  },
  {
    "STUDYID": "CDISCPILOT01",
    "DOMAIN": "VS",
    "USUBJID": "01-701-1028",
    "VSSEQ": 2.0,
    "VSTESTCD": "DIABP",
    "VSTEST": "Diastolic Blood Pressure",
    "VSPOS": "STANDING",
    "VSORRES": "70",
    "VSORRESU": "mmHg",
    "VSSTRESC": "70",
    "VSSTRESN": 70.0,
    "VSSTRESU": "mmHg",
    "VSSTAT": "",
    "VSLOC": "",
    "VSBLFL": "",
    "VISITNUM": 1.0,
    "VISIT": "SCREENING 1",
    "VISITDY": -7.0,
    "VSDTC": "2013-07-11",
    "VSDY": -8.0,
    "VSTPT": "AFTER STANDING FOR 1 MINUTE",
    "VSTPTNUM": 816.0,
    "VSELTM": "PT1M",
    "VSTPTREF": "PATIENT STANDING"
  },
  {
    "STUDYID": "CDISCPILOT01",
    "DOMAIN": "VS",
    "USUBJID": "01-701-1028",
    "VSSEQ": 3.0,
    "VSTESTCD": "DIABP",
    "VSTEST": "Diastolic Blood Pressure",
    "VSPOS": "STANDING",
    "VSORRES": "73",
    "VSORRESU": "mmHg",
    "VSSTRESC": "73",
    "VSSTRESN": 73.0,
    "VSSTRESU": "mmHg",
    "VSSTAT": "",
    "VSLOC": "",
    "VSBLFL": "",
    "VISITNUM": 1.0,
    "VISIT": "SCREENING 1",
    "VISITDY": -7.0,
    "VSDTC": "2013-07-11",
    "VSDY": -8.0,
    "VSTPT": "AFTER STANDING FOR 3 MINUTES",
    "VSTPTNUM": 817.0,
    "VSELTM": "PT3M",
    "VSTPTREF": "PATIENT STANDING"
  },
  {
    "STUDYID": "CDISCPILOT01",
    "DOMAIN": "VS",
    "USUBJID": "01-701-1028",
    "VSSEQ": 4.0,
    "VSTESTCD": "DIABP",
    "VSTEST": "Diastolic Blood Pressure",
    "VSPOS": "SUPINE",
    "VSORRES": "76",
    "VSORRESU": "mmHg",
    "VSSTRESC": "76",
    "VSSTRESN": 76.0,
    "VSSTRESU": "mmHg",
    "VSSTAT": "",
    "VSLOC": "",
    "VSBLFL": "",
    "VISITNUM": 2.0,
    "VISIT": "SCREENING 2",
    "VISITDY": -1.0,
    "VSDTC": "2013-07-17",
    "VSDY": -2.0,
    "VSTPT": "AFTER LYING DOWN FOR 5 MINUTES",
    "VSTPTNUM": 815.0,
    "VSELTM": "PT5M",
    "VSTPTREF": "PATIENT SUPINE"
  },
  {
    "STUDYID": "CDISCPILOT01",
    "DOMAIN": "VS",
    "USUBJID": "01-701-1028",
    "VSSEQ": 5.0,
    "VSTESTCD": "DIABP",
    "VSTEST": "Diastolic Blood Pressure",
    "VSPOS": "STANDING",
    "VSORRES": "76",
    "VSORRESU": "mmHg",
    "VSSTRESC": "76",
    "VSSTRESN": 76.0,
    "VSSTRESU": "mmHg",
    "VSSTAT": "",
    "VSLOC": "",
    "VSBLFL": "",
    "VISITNUM": 2.0,
    "VISIT": "SCREENING 2",
    "VISITDY": -1.0,
    "VSDTC": "2013-07-17",
    "VSDY": -2.0,
    "VSTPT": "AFTER STANDING FOR 1 MINUTE",
    "VSTPTNUM": 816.0,
    "VSELTM": "PT1M",
    "VSTPTREF": "PATIENT STANDING"
  },
  {
    "STUDYID": "CDISCPILOT01",
    "DOMAIN": "VS",
    "USUBJID": "01-701-1028",
    "VSSEQ": 6.0,
    "VSTESTCD": "DIABP",
    "VSTEST": "Diastolic Blood Pressure",
    "VSPOS": "STANDING",
    "VSORRES": "85",
    "VSORRESU": "mmHg",
    "VSSTRESC": "85",
    "VSSTRESN": 85.0,
    "VSSTRESU": "mmHg",
    "VSSTAT": "",
    "VSLOC": "",
    "VSBLFL": "",
    "VISITNUM": 2.0,
    "VISIT": "SCREENING 2",
    "VISITDY": -1.0,
    "VSDTC": "2013-07-17",
    "VSDY": -2.0,
    "VSTPT": "AFTER STANDING FOR 3 MINUTES",
    "VSTPTNUM": 817.0,
    "VSELTM": "PT3M",
    "VSTPTREF": "PATIENT STANDING"
  },
  {
    "STUDYID": "CDISCPILOT01",
    "DOMAIN": "VS",
    "USUBJID": "01-701-1028",
    "VSSEQ": 7.0,
    "VSTESTCD": "DIABP",
    "VSTEST": "Diastolic Blood Pressure",
    "VSPOS": "SUPINE",
    "VSORRES": "85",
    "VSORRESU": "mmHg",
    "VSSTRESC": "85",
    "VSSTRESN": 85.0,
    "VSSTRESU": "mmHg",
    "VSSTAT": "",
    "VSLOC": "",
    "VSBLFL": "Y",
    "VISITNUM": 3.0,
    "VISIT": "BASELINE",
    "VISITDY": 1.0,
    "VSDTC": "2013-07-19",
    "VSDY": 1.0,
    "VSTPT": "AFTER LYING DOWN FOR 5 MINUTES",
    "VSTPTNUM": 815.0,
    "VSELTM": "PT5M",
    "VSTPTREF": "PATIENT SUPINE"
  },
  {
    "STUDYID": "CDISCPILOT01",
    "DOMAIN": "VS",
    "USUBJID": "01-701-1028",
    "VSSEQ": 8.0,
    "VSTESTCD": "DIABP",
    "VSTEST": "Diastolic Blood Pressure",
    "VSPOS": "STANDING",
    "VSORRES": "76",
    "VSORRESU": "mmHg",
    "VSSTRESC": "76",
    "VSSTRESN": 76.0,
    "VSSTRESU": "mmHg",
    "VSSTAT": "",
    "VSLOC": "",
    "VSBLFL": "Y",
    "VISITNUM": 3.0,
    "VISIT": "BASELINE",
    "VISITDY": 1.0,
    "VSDTC": "2013-07-19",
    "VSDY": 1.0,
    "VSTPT": "AFTER STANDING FOR 1 MINUTE",
    "VSTPTNUM": 816.0,
    "VSELTM": "PT1M",
    "VSTPTREF": "PATIENT STANDING"
  },
  {
    "STUDYID": "CDISCPILOT01",
    "DOMAIN": "VS",
    "USUBJID": "01-701-1028",
    "VSSEQ": 9.0,
    "VSTESTCD": "DIABP",
    "VSTEST": "Diastolic Blood Pressure",
    "VSPOS": "STANDING",
    "VSORRES": "75",
    "VSORRESU": "mmHg",
    "VSSTRESC": "75",
    "VSSTRESN": 75.0,
    "VSSTRESU": "mmHg",
    "VSSTAT": "",
    "VSLOC": "",
    "VSBLFL": "Y",
    "VISITNUM": 3.0,
    "VISIT": "BASELINE",
    "VISITDY": 1.0,
    "VSDTC": "2013-07-19",
    "VSDY": 1.0,
    "VSTPT": "AFTER STANDING FOR 3 MINUTES",
    "VSTPTNUM": 817.0,
    "VSELTM": "PT3M",
    "VSTPTREF": "PATIENT STANDING"
  },
  {
    "STUDYID": "CDISCPILOT01",
    "DOMAIN": "VS",
    "USUBJID": "01-701-1028",
    "VSSEQ": 10.0,
    "VSTESTCD": "DIABP",
    "VSTEST": "Diastolic Blood Pressure",
    "VSPOS": "SUPINE",
    "VSORRES": "82",
    "VSORRESU": "mmHg",
    "VSSTRESC": "82",
    "VSSTRESN": 82.0,
    "VSSTRESU": "mmHg",
    "VSSTAT": "",
    "VSLOC": "",
    "VSBLFL": "",
    "VISITNUM": 3.5,
    "VISIT": "AMBUL ECG PLACEMENT",
    "VISITDY": 13.0,
    "VSDTC": "2013-07-31",
    "VSDY": 13.0,
    "VSTPT": "AFTER LYING DOWN FOR 5 MINUTES",
    "VSTPTNUM": 815.0,
    "VSELTM": "PT5M",
    "VSTPTREF": "PATIENT SUPINE"
  },
  {
    "STUDYID": "CDISCPILOT01",
    "DOMAIN": "VS",
    "USUBJID": "01-701-1028",
    "VSSEQ": 11.0,
    "VSTESTCD": "DIABP",
    "VSTEST": "Diastolic Blood Pressure",
    "VSPOS": "STANDING",
    "VSORRES": "82",
    "VSORRESU": "mmHg",
    "VSSTRESC": "82",
    "VSSTRESN": 82.0,
    "VSSTRESU": "mmHg",
    "VSSTAT": "",
    "VSLOC": "",
    "VSBLFL": "",
    "VISITNUM": 3.5,
    "VISIT": "AMBUL ECG PLACEMENT",
    "VISITDY": 13.0,
    "VSDTC": "2013-07-31",
    "VSDY": 13.0,
    "VSTPT": "AFTER STANDING FOR 1 MINUTE",
    "VSTPTNUM": 816.0,
    "VSELTM": "PT1M",
    "VSTPTREF": "PATIENT STANDING"
  },
  {
    "STUDYID": "CDISCPILOT01",
    "DOMAIN": "VS",
    "USUBJID": "01-701-1028",
    "VSSEQ": 12.0,
    "VSTESTCD": "DIABP",
    "VSTEST": "Diastolic Blood Pressure",
    "VSPOS": "STANDING",
    "VSORRES": "84",
    "VSORRESU": "mmHg",
    "VSSTRESC": "84",
    "VSSTRESN": 84.0,
    "VSSTRESU": "mmHg",
    "VSSTAT": "",
    "VSLOC": "",
    "VSBLFL": "",
    "VISITNUM": 3.5,
    "VISIT": "AMBUL ECG PLACEMENT",
    "VISITDY": 13.0,
    "VSDTC": "2013-07-31",
    "VSDY": 13.0,
    "VSTPT": "AFTER STANDING FOR 3 MINUTES",
    "VSTPTNUM": 817.0,
    "VSELTM": "PT3M",
    "VSTPTREF": "PATIENT STANDING"
  },
  {
    "STUDYID": "CDISCPILOT01",
    "DOMAIN": "VS",
    "USUBJID": "01-701-1028",
    "VSSEQ": 13.0,
    "VSTESTCD": "DIABP",
    "VSTEST": "Diastolic Blood Pressure",
    "VSPOS": "SUPINE",
    "VSORRES": "78",
    "VSORRESU": "mmHg",
    "VSSTRESC": "78",
    "VSSTRESN": 78.0,
    "VSSTRESU": "mmHg",
    "VSSTAT": "",
    "VSLOC": "",
    "VSBLFL": "",
    "VISITNUM": 4.0,
    "VISIT": "WEEK 2",
    "VISITDY": 14.0,
    "VSDTC": "2013-08-01",
    "VSDY": 14.0,
    "VSTPT": "AFTER LYING DOWN FOR 5 MINUTES",
    "VSTPTNUM": 815.0,
    "VSELTM": "PT5M",
    "VSTPTREF": "PATIENT SUPINE"
  },
  {
    "STUDYID": "CDISCPILOT01",
    "DOMAIN": "VS",
    "USUBJID": "01-701-1028",
    "VSSEQ": 14.0,
    "VSTESTCD": "DIABP",
    "VSTEST": "Diastolic Blood Pressure",
    "VSPOS": "STANDING",
    "VSORRES": "80",
    "VSORRESU": "mmHg",
    "VSSTRESC": "80",
    "VSSTRESN": 80.0,
    "VSSTRESU": "mmHg",
    "VSSTAT": "",
    "VSLOC": "",
    "VSBLFL": "",
    "VISITNUM": 4.0,
    "VISIT": "WEEK 2",
    "VISITDY": 14.0,
    "VSDTC": "2013-08-01",
    "VSDY": 14.0,
    "VSTPT": "AFTER STANDING FOR 1 MINUTE",
    "VSTPTNUM": 816.0,
    "VSELTM": "PT1M",
    "VSTPTREF": "PATIENT STANDING"
  },
  {
    "STUDYID": "CDISCPILOT01",
    "DOMAIN": "VS",
    "USUBJID": "01-701-1028",
    "VSSEQ": 15.0,
    "VSTESTCD": "DIABP",
    "VSTEST": "Diastolic Blood Pressure",
    "VSPOS": "STANDING",
    "VSORRES": "80",
    "VSORRESU": "mmHg",
    "VSSTRESC": "80",
    "VSSTRESN": 80.0,
    "VSSTRESU": "mmHg",
    "VSSTAT": "",
    "VSLOC": "",
    "VSBLFL": "",
    "VISITNUM": 4.0,
    "VISIT": "WEEK 2",
    "VISITDY": 14.0,
    "VSDTC": "2013-08-01",
    "VSDY": 14.0,
    "VSTPT": "AFTER STANDING FOR 3 MINUTES",
    "VSTPTNUM": 817.0,
    "VSELTM": "PT3M",
    "VSTPTREF": "PATIENT STANDING"
  },
  {
    "STUDYID": "CDISCPILOT01",
    "DOMAIN": "VS",
    "USUBJID": "01-701-1028",
    "VSSEQ": 16.0,
    "VSTESTCD": "DIABP",
    "VSTEST": "Diastolic Blood Pressure",
    "VSPOS": "SUPINE",
    "VSORRES": "69",
    "VSORRESU": "mmHg",
    "VSSTRESC": "69",
    "VSSTRESN": 69.0,
    "VSSTRESU": "mmHg",
    "VSSTAT": "",
    "VSLOC": "",
    "VSBLFL": "",
    "VISITNUM": 5.0,
    "VISIT": "WEEK 4",
    "VISITDY": 28.0,
    "VSDTC": "2013-08-14",
    "VSDY": 27.0,
    "VSTPT": "AFTER LYING DOWN FOR 5 MINUTES",
    "VSTPTNUM": 815.0,
    "VSELTM": "PT5M",
    "VSTPTREF": "PATIENT SUPINE"
  },
  {
    "STUDYID": "CDISCPILOT01",
    "DOMAIN": "VS",
    "USUBJID": "01-701-1028",
    "VSSEQ": 17.0,
    "VSTESTCD": "DIABP",
    "VSTEST": "Diastolic Blood Pressure",
    "VSPOS": "STANDING",
    "VSORRES": "72",
    "VSORRESU": "mmHg",
    "VSSTRESC": "72",
    "VSSTRESN": 72.0,
    "VSSTRESU": "mmHg",
    "VSSTAT": "",
    "VSLOC": "",
    "VSBLFL": "",
    "VISITNUM": 5.0,
    "VISIT": "WEEK 4",
    "VISITDY": 28.0,
    "VSDTC": "2013-08-14",
    "VSDY": 27.0,
    "VSTPT": "AFTER STANDING FOR 1 MINUTE",
    "VSTPTNUM": 816.0,
    "VSELTM": "PT1M",
    "VSTPTREF": "PATIENT STANDING"
  },
  {
    "STUDYID": "CDISCPILOT01",
    "DOMAIN": "VS",
    "USUBJID": "01-701-1028",
    "VSSEQ": 18.0,
    "VSTESTCD": "DIABP",
    "VSTEST": "Diastolic Blood Pressure",
    "VSPOS": "STANDING",
    "VSORRES": "68",
    "VSORRESU": "mmHg",
    "VSSTRESC": "68",
    "VSSTRESN": 68.0,
    "VSSTRESU": "mmHg",
    "VSSTAT": "",
    "VSLOC": "",
    "VSBLFL": "",
    "VISITNUM": 5.0,
    "VISIT": "WEEK 4",
    "VISITDY": 28.0,
    "VSDTC": "2013-08-14",
    "VSDY": 27.0,
    "VSTPT": "AFTER STANDING FOR 3 MINUTES",
    "VSTPTNUM": 817.0,
    "VSELTM": "PT3M",
    "VSTPTREF": "PATIENT STANDING"
  },
  {
    "STUDYID": "CDISCPILOT01",
    "DOMAIN": "VS",
    "USUBJID": "01-701-1028",
    "VSSEQ": 19.0,
    "VSTESTCD": "DIABP",
    "VSTEST": "Diastolic Blood Pressure",
    "VSPOS": "SUPINE",
    "VSORRES": "76",
    "VSORRESU": "mmHg",
    "VSSTRESC": "76",
    "VSSTRESN": 76.0,
    "VSSTRESU": "mmHg",
    "VSSTAT": "",
    "VSLOC": "",
    "VSBLFL": "",
    "VISITNUM": 6.0,
    "VISIT": "AMBUL ECG REMOVAL",
    "VISITDY": 30.0,
    "VSDTC": "2013-08-16",
    "VSDY": 29.0,
    "VSTPT": "AFTER LYING DOWN FOR 5 MINUTES",
    "VSTPTNUM": 815.0,
    "VSELTM": "PT5M",
    "VSTPTREF": "PATIENT SUPINE"
  },
  {
    "STUDYID": "CDISCPILOT01",
    "DOMAIN": "VS",
    "USUBJID": "01-701-1028",
    "VSSEQ": 20.0,
    "VSTESTCD": "DIABP",
    "VSTEST": "Diastolic Blood Pressure",
    "VSPOS": "STANDING",
    "VSORRES": "85",
    "VSORRESU": "mmHg",
    "VSSTRESC": "85",
    "VSSTRESN": 85.0,
    "VSSTRESU": "mmHg",
    "VSSTAT": "",
    "VSLOC": "",
    "VSBLFL": "",
    "VISITNUM": 6.0,
    "VISIT": "AMBUL ECG REMOVAL",
    "VISITDY": 30.0,
    "VSDTC": "2013-08-16",
    "VSDY": 29.0,
    "VSTPT": "AFTER STANDING FOR 1 MINUTE",
    "VSTPTNUM": 816.0,
    "VSELTM": "PT1M",
    "VSTPTREF": "PATIENT STANDING"
  },
  {
    "STUDYID": "CDISCPILOT01",
    "DOMAIN": "VS",
    "USUBJID": "01-701-1028",
    "VSSEQ": 21.0,
    "VSTESTCD": "DIABP",
    "VSTEST": "Diastolic Blood Pressure",
    "VSPOS": "STANDING",
    "VSORRES": "81",
    "VSORRESU": "mmHg",
    "VSSTRESC": "81",
    "VSSTRESN": 81.0,
    "VSSTRESU": "mmHg",
    "VSSTAT": "",
    "VSLOC": "",
    "VSBLFL": "",
    "VISITNUM": 6.0,
    "VISIT": "AMBUL ECG REMOVAL",
    "VISITDY": 30.0,
    "VSDTC": "2013-08-16",
    "VSDY": 29.0,
    "VSTPT": "AFTER STANDING FOR 3 MINUTES",
    "VSTPTNUM": 817.0,
    "VSELTM": "PT3M",
    "VSTPTREF": "PATIENT STANDING"
  },
  {
    "STUDYID": "CDISCPILOT01",
    "DOMAIN": "VS",
    "USUBJID": "01-701-1028",
    "VSSEQ": 22.0,
    "VSTESTCD": "DIABP",
    "VSTEST": "Diastolic Blood Pressure",
    "VSPOS": "SUPINE",
    "VSORRES": "69",
    "VSORRESU": "mmHg",
    "VSSTRESC": "69",
    "VSSTRESN": 69.0,
    "VSSTRESU": "mmHg",
    "VSSTAT": "",
    "VSLOC": "",
    "VSBLFL": "",
    "VISITNUM": 7.0,
    "VISIT": "WEEK 6",
    "VISITDY": 42.0,
    "VSDTC": "2013-08-29",
    "VSDY": 42.0,
    "VSTPT": "AFTER LYING DOWN FOR 5 MINUTES",
    "VSTPTNUM": 815.0,
    "VSELTM": "PT5M",
    "VSTPTREF": "PATIENT SUPINE"
  },
  {
    "STUDYID": "CDISCPILOT01",
    "DOMAIN": "VS",
    "USUBJID": "01-701-1028",
    "VSSEQ": 23.0,
    "VSTESTCD": "DIABP",
    "VSTEST": "Diastolic Blood Pressure",
    "VSPOS": "STANDING",
    "VSORRES": "77",
    "VSORRESU": "mmHg",
    "VSSTRESC": "77",
    "VSSTRESN": 77.0,
    "VSSTRESU": "mmHg",
    "VSSTAT": "",
    "VSLOC": "",
    "VSBLFL": "",
    "VISITNUM": 7.0,
    "VISIT": "WEEK 6",
    "VISITDY": 42.0,
    "VSDTC": "2013-08-29",
    "VSDY": 42.0,
    "VSTPT": "AFTER STANDING FOR 1 MINUTE",
    "VSTPTNUM": 816.0,
    "VSELTM": "PT1M",
    "VSTPTREF": "PATIENT STANDING"
  },
  {
    "STUDYID": "CDISCPILOT01",
    "DOMAIN": "VS",
    "USUBJID": "01-701-1028",
    "VSSEQ": 24.0,
    "VSTESTCD": "DIABP",
    "VSTEST": "Diastolic Blood Pressure",
    "VSPOS": "STANDING",
    "VSORRES": "76",
    "VSORRESU": "mmHg",
    "VSSTRESC": "76",
    "VSSTRESN": 76.0,
    "VSSTRESU": "mmHg",
    "VSSTAT": "",
    "VSLOC": "",
    "VSBLFL": "",
    "VISITNUM": 7.0,
    "VISIT": "WEEK 6",
    "VISITDY": 42.0,
    "VSDTC": "2013-08-29",
    "VSDY": 42.0,
    "VSTPT": "AFTER STANDING FOR 3 MINUTES",
    "VSTPTNUM": 817.0,
    "VSELTM": "PT3M",
    "VSTPTREF": "PATIENT STANDING"
  },
  {
    "STUDYID": "CDISCPILOT01",
    "DOMAIN": "VS",
    "USUBJID": "01-701-1028",
    "VSSEQ": 25.0,
    "VSTESTCD": "DIABP",
    "VSTEST": "Diastolic Blood Pressure",
    "VSPOS": "SUPINE",
    "VSORRES": "76",
    "VSORRESU": "mmHg",
    "VSSTRESC": "76",
    "VSSTRESN": 76.0,
    "VSSTRESU": "mmHg",
    "VSSTAT": "",
    "VSLOC": "",
    "VSBLFL": "",
    "VISITNUM": 8.0,
    "VISIT": "WEEK 8",
    "VISITDY": 56.0,
    "VSDTC": "2013-09-10",
    "VSDY": 54.0,
    "VSTPT": "AFTER LYING DOWN FOR 5 MINUTES",
    "VSTPTNUM": 815.0,
    "VSELTM": "PT5M",
    "VSTPTREF": "PATIENT SUPINE"
  },
  {
    "STUDYID": "CDISCPILOT01",
    "DOMAIN": "VS",
    "USUBJID": "01-701-1028",
    "VSSEQ": 26.0,
    "VSTESTCD": "DIABP",
    "VSTEST": "Diastolic Blood Pressure",
    "VSPOS": "STANDING",
    "VSORRES": "81",
    "VSORRESU": "mmHg",
    "VSSTRESC": "81",
    "VSSTRESN": 81.0,
    "VSSTRESU": "mmHg",
    "VSSTAT": "",
    "VSLOC": "",
    "VSBLFL": "",
    "VISITNUM": 8.0,
    "VISIT": "WEEK 8",
    "VISITDY": 56.0,
    "VSDTC": "2013-09-10",
    "VSDY": 54.0,
    "VSTPT": "AFTER STANDING FOR 1 MINUTE",
    "VSTPTNUM": 816.0,
    "VSELTM": "PT1M",
    "VSTPTREF": "PATIENT STANDING"
  },
  {
    "STUDYID": "CDISCPILOT01",
    "DOMAIN": "VS",
    "USUBJID": "01-701-1028",
    "VSSEQ": 27.0,
    "VSTESTCD": "DIABP",
    "VSTEST": "Diastolic Blood Pressure",
    "VSPOS": "STANDING",
    "VSORRES": "84",
    "VSORRESU": "mmHg",
    "VSSTRESC": "84",
    "VSSTRESN": 84.0,
    "VSSTRESU": "mmHg",
    "VSSTAT": "",
    "VSLOC": "",
    "VSBLFL": "",
    "VISITNUM": 8.0,
    "VISIT": "WEEK 8",
    "VISITDY": 56.0,
    "VSDTC": "2013-09-10",
    "VSDY": 54.0,
    "VSTPT": "AFTER STANDING FOR 3 MINUTES",
    "VSTPTNUM": 817.0,
    "VSELTM": "PT3M",
    "VSTPTREF": "PATIENT STANDING"
  },
  {
    "STUDYID": "CDISCPILOT01",
    "DOMAIN": "VS",
    "USUBJID": "01-701-1028",
    "VSSEQ": 28.0,
    "VSTESTCD": "DIABP",
    "VSTEST": "Diastolic Blood Pressure",
    "VSPOS": "SUPINE",
    "VSORRES": "74",
    "VSORRESU": "mmHg",
    "VSSTRESC": "74",
    "VSSTRESN": 74.0,
    "VSSTRESU": "mmHg",
    "VSSTAT": "",
    "VSLOC": "",
    "VSBLFL": "",
    "VISITNUM": 9.0,
    "VISIT": "WEEK 12",
    "VISITDY": 84.0,
    "VSDTC": "2013-10-09",
    "VSDY": 83.0,
    "VSTPT": "AFTER LYING DOWN FOR 5 MINUTES",
    "VSTPTNUM": 815.0,
    "VSELTM": "PT5M",
    "VSTPTREF": "PATIENT SUPINE"
  },
  {
    "STUDYID": "CDISCPILOT01",
    "DOMAIN": "VS",
    "USUBJID": "01-701-1028",
    "VSSEQ": 29.0,
    "VSTESTCD": "DIABP",
    "VSTEST": "Diastolic Blood Pressure",
    "VSPOS": "STANDING",
    "VSORRES": "83",
    "VSORRESU": "mmHg",
    "VSSTRESC": "83",
    "VSSTRESN": 83.0,
    "VSSTRESU": "mmHg",
    "VSSTAT": "",
    "VSLOC": "",
    "VSBLFL": "",
    "VISITNUM": 9.0,
    "VISIT": "WEEK 12",
    "VISITDY": 84.0,
    "VSDTC": "2013-10-09",
    "VSDY": 83.0,
    "VSTPT": "AFTER STANDING FOR 1 MINUTE",
    "VSTPTNUM": 816.0,
    "VSELTM": "PT1M",
    "VSTPTREF": "PATIENT STANDING"
  },
  {
    "STUDYID": "CDISCPILOT01",
    "DOMAIN": "VS",
    "USUBJID": "01-701-1028",
    "VSSEQ": 30.0,
    "VSTESTCD": "DIABP",
    "VSTEST": "Diastolic Blood Pressure",
    "VSPOS": "STANDING",
    "VSORRES": "80",
    "VSORRESU": "mmHg",
    "VSSTRESC": "80",
    "VSSTRESN": 80.0,
    "VSSTRESU": "mmHg",
    "VSSTAT": "",
    "VSLOC": "",
    "VSBLFL": "",
    "VISITNUM": 9.0,
    "VISIT": "WEEK 12",
    "VISITDY": 84.0,
    "VSDTC": "2013-10-09",
    "VSDY": 83.0,
    "VSTPT": "AFTER STANDING FOR 3 MINUTES",
    "VSTPTNUM": 817.0,
    "VSELTM": "PT3M",
    "VSTPTREF": "PATIENT STANDING"
  },
  {
    "STUDYID": "CDISCPILOT01",
    "DOMAIN": "VS",
    "USUBJID": "01-701-1028",
    "VSSEQ": 31.0,
    "VSTESTCD": "DIABP",
    "VSTEST": "Diastolic Blood Pressure",
    "VSPOS": "SUPINE",
    "VSORRES": "75",
    "VSORRESU": "mmHg",
    "VSSTRESC": "75",
    "VSSTRESN": 75.0,
    "VSSTRESU": "mmHg",
    "VSSTAT": "",
    "VSLOC": "",
    "VSBLFL": "",
    "VISITNUM": 10.0,
    "VISIT": "WEEK 16",
    "VISITDY": 112.0,
    "VSDTC": "2013-11-06",
    "VSDY": 111.0,
    "VSTPT": "AFTER LYING DOWN FOR 5 MINUTES",
    "VSTPTNUM": 815.0,
    "VSELTM": "PT5M",
    "VSTPTREF": "PATIENT SUPINE"
  },
  {
    "STUDYID": "CDISCPILOT01",
    "DOMAIN": "VS",
    "USUBJID": "01-701-1028",
    "VSSEQ": 32.0,
    "VSTESTCD": "DIABP",
    "VSTEST": "Diastolic Blood Pressure",
    "VSPOS": "STANDING",
    "VSORRES": "76",
    "VSORRESU": "mmHg",
    "VSSTRESC": "76",
    "VSSTRESN": 76.0,
    "VSSTRESU": "mmHg",
    "VSSTAT": "",
    "VSLOC": "",
    "VSBLFL": "",
    "VISITNUM": 10.0,
    "VISIT": "WEEK 16",
    "VISITDY": 112.0,
    "VSDTC": "2013-11-06",
    "VSDY": 111.0,
    "VSTPT": "AFTER STANDING FOR 1 MINUTE",
    "VSTPTNUM": 816.0,
    "VSELTM": "PT1M",
    "VSTPTREF": "PATIENT STANDING"
  },
  {
    "STUDYID": "CDISCPILOT01",
    "DOMAIN": "VS",
    "USUBJID": "01-701-1028",
    "VSSEQ": 33.0,
    "VSTESTCD": "DIABP",
    "VSTEST": "Diastolic Blood Pressure",
    "VSPOS": "STANDING",
    "VSORRES": "78",
    "VSORRESU": "mmHg",
    "VSSTRESC": "78",
    "VSSTRESN": 78.0,
    "VSSTRESU": "mmHg",
    "VSSTAT": "",
    "VSLOC": "",
    "VSBLFL": "",
    "VISITNUM": 10.0,
    "VISIT": "WEEK 16",
    "VISITDY": 112.0,
    "VSDTC": "2013-11-06",
    "VSDY": 111.0,
    "VSTPT": "AFTER STANDING FOR 3 MINUTES",
    "VSTPTNUM": 817.0,
    "VSELTM": "PT3M",
    "VSTPTREF": "PATIENT STANDING"
  },
  {
    "STUDYID": "CDISCPILOT01",
    "DOMAIN": "VS",
    "USUBJID": "01-701-1028",
    "VSSEQ": 34.0,
    "VSTESTCD": "DIABP",
    "VSTEST": "Diastolic Blood Pressure",
    "VSPOS": "SUPINE",
    "VSORRES": "79",
    "VSORRESU": "mmHg",
    "VSSTRESC": "79",
    "VSSTRESN": 79.0,
    "VSSTRESU": "mmHg",
    "VSSTAT": "",
    "VSLOC": "",
    "VSBLFL": "",
    "VISITNUM": 11.0,
    "VISIT": "WEEK 20",
    "VISITDY": 140.0,
    "VSDTC": "2013-12-04",
    "VSDY": 139.0,
    "VSTPT": "AFTER LYING DOWN FOR 5 MINUTES",
    "VSTPTNUM": 815.0,
    "VSELTM": "PT5M",
    "VSTPTREF": "PATIENT SUPINE"
  },
  {
    "STUDYID": "CDISCPILOT01",
    "DOMAIN": "VS",
    "USUBJID": "01-701-1028",
    "VSSEQ": 35.0,
    "VSTESTCD": "DIABP",
    "VSTEST": "Diastolic Blood Pressure",
    "VSPOS": "STANDING",
    "VSORRES": "76",
    "VSORRESU": "mmHg",
    "VSSTRESC": "76",
    "VSSTRESN": 76.0,
    "VSSTRESU": "mmHg",
    "VSSTAT": "",
    "VSLOC": "",
    "VSBLFL": "",
    "VISITNUM": 11.0,
    "VISIT": "WEEK 20",
    "VISITDY": 140.0,
    "VSDTC": "2013-12-04",
    "VSDY": 139.0,
    "VSTPT": "AFTER STANDING FOR 1 MINUTE",
    "VSTPTNUM": 816.0,
    "VSELTM": "PT1M",
    "VSTPTREF": "PATIENT STANDING"
  },
  {
    "STUDYID": "CDISCPILOT01",
    "DOMAIN": "VS",
    "USUBJID": "01-701-1028",
    "VSSEQ": 36.0,
    "VSTESTCD": "DIABP",
    "VSTEST": "Diastolic Blood Pressure",
    "VSPOS": "STANDING",
    "VSORRES": "77",
    "VSORRESU": "mmHg",
    "VSSTRESC": "77",
    "VSSTRESN": 77.0,
    "VSSTRESU": "mmHg",
    "VSSTAT": "",
    "VSLOC": "",
    "VSBLFL": "",
    "VISITNUM": 11.0,
    "VISIT": "WEEK 20",
    "VISITDY": 140.0,
    "VSDTC": "2013-12-04",
    "VSDY": 139.0,
    "VSTPT": "AFTER STANDING FOR 3 MINUTES",
    "VSTPTNUM": 817.0,
    "VSELTM": "PT3M",
    "VSTPTREF": "PATIENT STANDING"
  },
  {
    "STUDYID": "CDISCPILOT01",
    "DOMAIN": "VS",
    "USUBJID": "01-701-1028",
    "VSSEQ": 37.0,
    "VSTESTCD": "DIABP",
    "VSTEST": "Diastolic Blood Pressure",
    "VSPOS": "SUPINE",
    "VSORRES": "73",
    "VSORRESU": "mmHg",
    "VSSTRESC": "73",
    "VSSTRESN": 73.0,
    "VSSTRESU": "mmHg",
    "VSSTAT": "",
    "VSLOC": "",
    "VSBLFL": "",
    "VISITNUM": 12.0,
    "VISIT": "WEEK 24",
    "VISITDY": 168.0,
    "VSDTC": "2014-01-06",
    "VSDY": 172.0,
    "VSTPT": "AFTER LYING DOWN FOR 5 MINUTES",
    "VSTPTNUM": 815.0,
    "VSELTM": "PT5M",
    "VSTPTREF": "PATIENT SUPINE"
  },
  {
    "STUDYID": "CDISCPILOT01",
    "DOMAIN": "VS",
    "USUBJID": "01-701-1028",
    "VSSEQ": 38.0,
    "VSTESTCD": "DIABP",
    "VSTEST": "Diastolic Blood Pressure",
    "VSPOS": "STANDING",
    "VSORRES": "72",
    "VSORRESU": "mmHg",
    "VSSTRESC": "72",
    "VSSTRESN": 72.0,
    "VSSTRESU": "mmHg",
    "VSSTAT": "",
    "VSLOC": "",
    "VSBLFL": "",
    "VISITNUM": 12.0,
    "VISIT": "WEEK 24",
    "VISITDY": 168.0,
    "VSDTC": "2014-01-06",
    "VSDY": 172.0,
    "VSTPT": "AFTER STANDING FOR 1 MINUTE",
    "VSTPTNUM": 816.0,
    "VSELTM": "PT1M",
    "VSTPTREF": "PATIENT STANDING"
  },
  {
    "STUDYID": "CDISCPILOT01",
    "DOMAIN": "VS",
    "USUBJID": "01-701-1028",
    "VSSEQ": 39.0,
    "VSTESTCD": "DIABP",
    "VSTEST": "Diastolic Blood Pressure",
    "VSPOS": "STANDING",
    "VSORRES": "77",
    "VSORRESU": "mmHg",
    "VSSTRESC": "77",
    "VSSTRESN": 77.0,
    "VSSTRESU": "mmHg",
    "VSSTAT": "",
    "VSLOC": "",
    "VSBLFL": "",
    "VISITNUM": 12.0,
    "VISIT": "WEEK 24",
    "VISITDY": 168.0,
    "VSDTC": "2014-01-06",
    "VSDY": 172.0,
    "VSTPT": "AFTER STANDING FOR 3 MINUTES",
    "VSTPTNUM": 817.0,
    "VSELTM": "PT3M",
    "VSTPTREF": "PATIENT STANDING"
  },
  {
    "STUDYID": "CDISCPILOT01",
    "DOMAIN": "VS",
    "USUBJID": "01-701-1028",
    "VSSEQ": 40.0,
    "VSTESTCD": "DIABP",
    "VSTEST": "Diastolic Blood Pressure",
    "VSPOS": "SUPINE",
    "VSORRES": "70",
    "VSORRESU": "mmHg",
    "VSSTRESC": "70",
    "VSSTRESN": 70.0,
    "VSSTRESU": "mmHg",
    "VSSTAT": "",
    "VSLOC": "",
    "VSBLFL": "",
    "VISITNUM": 13.0,
    "VISIT": "WEEK 26",
    "VISITDY": 182.0,
    "VSDTC": "2014-01-14",
    "VSDY": 180.0,
    "VSTPT": "AFTER LYING DOWN FOR 5 MINUTES",
    "VSTPTNUM": 815.0,
    "VSELTM": "PT5M",
    "VSTPTREF": "PATIENT SUPINE"
  },
  {
    "STUDYID": "CDISCPILOT01",
    "DOMAIN": "VS",
    "USUBJID": "01-701-1028",
    "VSSEQ": 41.0,
    "VSTESTCD": "DIABP",
    "VSTEST": "Diastolic Blood Pressure",
    "VSPOS": "STANDING",
    "VSORRES": "79",
    "VSORRESU": "mmHg",
    "VSSTRESC": "79",
    "VSSTRESN": 79.0,
    "VSSTRESU": "mmHg",
    "VSSTAT": "",
    "VSLOC": "",
    "VSBLFL": "",
    "VISITNUM": 13.0,
    "VISIT": "WEEK 26",
    "VISITDY": 182.0,
    "VSDTC": "2014-01-14",
    "VSDY": 180.0,
    "VSTPT": "AFTER STANDING FOR 1 MINUTE",
    "VSTPTNUM": 816.0,
    "VSELTM": "PT1M",
    "VSTPTREF": "PATIENT STANDING"
  },
  {
    "STUDYID": "CDISCPILOT01",
    "DOMAIN": "VS",
    "USUBJID": "01-701-1028",
    "VSSEQ": 42.0,
    "VSTESTCD": "DIABP",
    "VSTEST": "Diastolic Blood Pressure",
    "VSPOS": "STANDING",
    "VSORRES": "77",
    "VSORRESU": "mmHg",
    "VSSTRESC": "77",
    "VSSTRESN": 77.0,
    "VSSTRESU": "mmHg",
    "VSSTAT": "",
    "VSLOC": "",
    "VSBLFL": "",
    "VISITNUM": 13.0,
    "VISIT": "WEEK 26",
    "VISITDY": 182.0,
    "VSDTC": "2014-01-14",
    "VSDY": 180.0,
    "VSTPT": "AFTER STANDING FOR 3 MINUTES",
    "VSTPTNUM": 817.0,
    "VSELTM": "PT3M",
    "VSTPTREF": "PATIENT STANDING"
  },
  {
    "STUDYID": "CDISCPILOT01",
    "DOMAIN": "VS",
    "USUBJID": "01-701-1028",
    "VSSEQ": 43.0,
    "VSTESTCD": "HEIGHT",
    "VSTEST": "Height",
    "VSPOS": "",
    "VSORRES": "70.0",
    "VSORRESU": "IN",
    "VSSTRESC": "177.8",
    "VSSTRESN": 177.8,
    "VSSTRESU": "cm",
    "VSSTAT": "",
    "VSLOC": "",
    "VSBLFL": "",
    "VISITNUM": 1.0,
    "VISIT": "SCREENING 1",
    "VISITDY": -7.0,
    "VSDTC": "2013-07-11",
    "VSDY": -8.0,
    "VSTPT": "",
    "VSTPTNUM": "",
    "VSELTM": "",
    "VSTPTREF": ""
  },
  {
    "STUDYID": "CDISCPILOT01",
    "DOMAIN": "VS",
    "USUBJID": "01-701-1028",
    "VSSEQ": 44.0,
    "VSTESTCD": "PULSE",
    "VSTEST": "Pulse Rate",
    "VSPOS": "SUPINE",
    "VSORRES": "54",
    "VSORRESU": "BEATS/MIN",
    "VSSTRESC": "54",
    "VSSTRESN": 54.0,
    "VSSTRESU": "BEATS/MIN",
    "VSSTAT": "",
    "VSLOC": "",
    "VSBLFL": "",
    "VISITNUM": 1.0,
    "VISIT": "SCREENING 1",
    "VISITDY": -7.0,
    "VSDTC": "2013-07-11",
    "VSDY": -8.0,
    "VSTPT": "AFTER LYING DOWN FOR 5 MINUTES",
    "VSTPTNUM": 815.0,
    "VSELTM": "PT5M",
    "VSTPTREF": "PATIENT SUPINE"
  },
  {
    "STUDYID": "CDISCPILOT01",
    "DOMAIN": "VS",
    "USUBJID": "01-701-1028",
    "VSSEQ": 45.0,
    "VSTESTCD": "PULSE",
    "VSTEST": "Pulse Rate",
    "VSPOS": "STANDING",
    "VSORRES": "59",
    "VSORRESU": "BEATS/MIN",
    "VSSTRESC": "59",
    "VSSTRESN": 59.0,
    "VSSTRESU": "BEATS/MIN",
    "VSSTAT": "",
    "VSLOC": "",
    "VSBLFL": "",
    "VISITNUM": 1.0,
    "VISIT": "SCREENING 1",
    "VISITDY": -7.0,
    "VSDTC": "2013-07-11",
    "VSDY": -8.0,
    "VSTPT": "AFTER STANDING FOR 1 MINUTE",
    "VSTPTNUM": 816.0,
    "VSELTM": "PT1M",
    "VSTPTREF": "PATIENT STANDING"
  },
  {
    "STUDYID": "CDISCPILOT01",
    "DOMAIN": "VS",
    "USUBJID": "01-701-1028",
    "VSSEQ": 46.0,
    "VSTESTCD": "PULSE",
    "VSTEST": "Pulse Rate",
    "VSPOS": "STANDING",
    "VSORRES": "59",
    "VSORRESU": "BEATS/MIN",
    "VSSTRESC": "59",
    "VSSTRESN": 59.0,
    "VSSTRESU": "BEATS/MIN",
    "VSSTAT": "",
    "VSLOC": "",
    "VSBLFL": "",
    "VISITNUM": 1.0,
    "VISIT": "SCREENING 1",
    "VISITDY": -7.0,
    "VSDTC": "2013-07-11",
    "VSDY": -8.0,
    "VSTPT": "AFTER STANDING FOR 3 MINUTES",
    "VSTPTNUM": 817.0,
    "VSELTM": "PT3M",
    "VSTPTREF": "PATIENT STANDING"
  },
  {
    "STUDYID": "CDISCPILOT01",
    "DOMAIN": "VS",
    "USUBJID": "01-701-1028",
    "VSSEQ": 47.0,
    "VSTESTCD": "PULSE",
    "VSTEST": "Pulse Rate",
    "VSPOS": "SUPINE",
    "VSORRES": "68",
    "VSORRESU": "BEATS/MIN",
    "VSSTRESC": "68",
    "VSSTRESN": 68.0,
    "VSSTRESU": "BEATS/MIN",
    "VSSTAT": "",
    "VSLOC": "",
    "VSBLFL": "",
    "VISITNUM": 2.0,
    "VISIT": "SCREENING 2",
    "VISITDY": -1.0,
    "VSDTC": "2013-07-17",
    "VSDY": -2.0,
    "VSTPT": "AFTER LYING DOWN FOR 5 MINUTES",
    "VSTPTNUM": 815.0,
    "VSELTM": "PT5M",
    "VSTPTREF": "PATIENT SUPINE"
  },
  {
    "STUDYID": "CDISCPILOT01",
    "DOMAIN": "VS",
    "USUBJID": "01-701-1028",
    "VSSEQ": 48.0,
    "VSTESTCD": "PULSE",
    "VSTEST": "Pulse Rate",
    "VSPOS": "STANDING",
    "VSORRES": "72",
    "VSORRESU": "BEATS/MIN",
    "VSSTRESC": "72",
    "VSSTRESN": 72.0,
    "VSSTRESU": "BEATS/MIN",
    "VSSTAT": "",
    "VSLOC": "",
    "VSBLFL": "",
    "VISITNUM": 2.0,
    "VISIT": "SCREENING 2",
    "VISITDY": -1.0,
    "VSDTC": "2013-07-17",
    "VSDY": -2.0,
    "VSTPT": "AFTER STANDING FOR 1 MINUTE",
    "VSTPTNUM": 816.0,
    "VSELTM": "PT1M",
    "VSTPTREF": "PATIENT STANDING"
  },
  {
    "STUDYID": "CDISCPILOT01",
    "DOMAIN": "VS",
    "USUBJID": "01-701-1028",
    "VSSEQ": 49.0,
    "VSTESTCD": "PULSE",
    "VSTEST": "Pulse Rate",
    "VSPOS": "STANDING",
    "VSORRES": "74",
    "VSORRESU": "BEATS/MIN",
    "VSSTRESC": "74",
    "VSSTRESN": 74.0,
    "VSSTRESU": "BEATS/MIN",
    "VSSTAT": "",
    "VSLOC": "",
    "VSBLFL": "",
    "VISITNUM": 2.0,
    "VISIT": "SCREENING 2",
    "VISITDY": -1.0,
    "VSDTC": "2013-07-17",
    "VSDY": -2.0,
    "VSTPT": "AFTER STANDING FOR 3 MINUTES",
    "VSTPTNUM": 817.0,
    "VSELTM": "PT3M",
    "VSTPTREF": "PATIENT STANDING"
  },
  {
    "STUDYID": "CDISCPILOT01",
    "DOMAIN": "VS",
    "USUBJID": "01-701-1028",
    "VSSEQ": 50.0,
    "VSTESTCD": "PULSE",
    "VSTEST": "Pulse Rate",
    "VSPOS": "SUPINE",
    "VSORRES": "62",
    "VSORRESU": "BEATS/MIN",
    "VSSTRESC": "62",
    "VSSTRESN": 62.0,
    "VSSTRESU": "BEATS/MIN",
    "VSSTAT": "",
    "VSLOC": "",
    "VSBLFL": "Y",
    "VISITNUM": 3.0,
    "VISIT": "BASELINE",
    "VISITDY": 1.0,
    "VSDTC": "2013-07-19",
    "VSDY": 1.0,
    "VSTPT": "AFTER LYING DOWN FOR 5 MINUTES",
    "VSTPTNUM": 815.0,
    "VSELTM": "PT5M",
    "VSTPTREF": "PATIENT SUPINE"
  },
  {
    "STUDYID": "CDISCPILOT01",
    "DOMAIN": "VS",
    "USUBJID": "01-701-1028",
    "VSSEQ": 51.0,
    "VSTESTCD": "PULSE",
    "VSTEST": "Pulse Rate",
    "VSPOS": "STANDING",
    "VSORRES": "62",
    "VSORRESU": "BEATS/MIN",
    "VSSTRESC": "62",
    "VSSTRESN": 62.0,
    "VSSTRESU": "BEATS/MIN",
    "VSSTAT": "",
    "VSLOC": "",
    "VSBLFL": "Y",
    "VISITNUM": 3.0,
    "VISIT": "BASELINE",
    "VISITDY": 1.0,
    "VSDTC": "2013-07-19",
    "VSDY": 1.0,
    "VSTPT": "AFTER STANDING FOR 1 MINUTE",
    "VSTPTNUM": 816.0,
    "VSELTM": "PT1M",
    "VSTPTREF": "PATIENT STANDING"
  },
  {
    "STUDYID": "CDISCPILOT01",
    "DOMAIN": "VS",
    "USUBJID": "01-701-1028",
    "VSSEQ": 52.0,
    "VSTESTCD": "PULSE",
    "VSTEST": "Pulse Rate",
    "VSPOS": "STANDING",
    "VSORRES": "66",
    "VSORRESU": "BEATS/MIN",
    "VSSTRESC": "66",
    "VSSTRESN": 66.0,
    "VSSTRESU": "BEATS/MIN",
    "VSSTAT": "",
    "VSLOC": "",
    "VSBLFL": "Y",
    "VISITNUM": 3.0,
    "VISIT": "BASELINE",
    "VISITDY": 1.0,
    "VSDTC": "2013-07-19",
    "VSDY": 1.0,
    "VSTPT": "AFTER STANDING FOR 3 MINUTES",
    "VSTPTNUM": 817.0,
    "VSELTM": "PT3M",
    "VSTPTREF": "PATIENT STANDING"
  },
  {
    "STUDYID": "CDISCPILOT01",
    "DOMAIN": "VS",
    "USUBJID": "01-701-1028",
    "VSSEQ": 53.0,
    "VSTESTCD": "PULSE",
    "VSTEST": "Pulse Rate",
    "VSPOS": "SUPINE",
    "VSORRES": "60",
    "VSORRESU": "BEATS/MIN",
    "VSSTRESC": "60",
    "VSSTRESN": 60.0,
    "VSSTRESU": "BEATS/MIN",
    "VSSTAT": "",
    "VSLOC": "",
    "VSBLFL": "",
    "VISITNUM": 3.5,
    "VISIT": "AMBUL ECG PLACEMENT",
    "VISITDY": 13.0,
    "VSDTC": "2013-07-31",
    "VSDY": 13.0,
    "VSTPT": "AFTER LYING DOWN FOR 5 MINUTES",
    "VSTPTNUM": 815.0,
    "VSELTM": "PT5M",
    "VSTPTREF": "PATIENT SUPINE"
  },
  {
    "STUDYID": "CDISCPILOT01",
    "DOMAIN": "VS",
    "USUBJID": "01-701-1028",
    "VSSEQ": 54.0,
    "VSTESTCD": "PULSE",
    "VSTEST": "Pulse Rate",
    "VSPOS": "STANDING",
    "VSORRES": "66",
    "VSORRESU": "BEATS/MIN",
    "VSSTRESC": "66",
    "VSSTRESN": 66.0,
    "VSSTRESU": "BEATS/MIN",
    "VSSTAT": "",
    "VSLOC": "",
    "VSBLFL": "",
    "VISITNUM": 3.5,
    "VISIT": "AMBUL ECG PLACEMENT",
    "VISITDY": 13.0,
    "VSDTC": "2013-07-31",
    "VSDY": 13.0,
    "VSTPT": "AFTER STANDING FOR 1 MINUTE",
    "VSTPTNUM": 816.0,
    "VSELTM": "PT1M",
    "VSTPTREF": "PATIENT STANDING"
  },
  {
    "STUDYID": "CDISCPILOT01",
    "DOMAIN": "VS",
    "USUBJID": "01-701-1028",
    "VSSEQ": 55.0,
    "VSTESTCD": "PULSE",
    "VSTEST": "Pulse Rate",
    "VSPOS": "STANDING",
    "VSORRES": "65",
    "VSORRESU": "BEATS/MIN",
    "VSSTRESC": "65",
    "VSSTRESN": 65.0,
    "VSSTRESU": "BEATS/MIN",
    "VSSTAT": "",
    "VSLOC": "",
    "VSBLFL": "",
    "VISITNUM": 3.5,
    "VISIT": "AMBUL ECG PLACEMENT",
    "VISITDY": 13.0,
    "VSDTC": "2013-07-31",
    "VSDY": 13.0,
    "VSTPT": "AFTER STANDING FOR 3 MINUTES",
    "VSTPTNUM": 817.0,
    "VSELTM": "PT3M",
    "VSTPTREF": "PATIENT STANDING"
  },
  {
    "STUDYID": "CDISCPILOT01",
    "DOMAIN": "VS",
    "USUBJID": "01-701-1028",
    "VSSEQ": 56.0,
    "VSTESTCD": "PULSE",
    "VSTEST": "Pulse Rate",
    "VSPOS": "SUPINE",
    "VSORRES": "65",
    "VSORRESU": "BEATS/MIN",
    "VSSTRESC": "65",
    "VSSTRESN": 65.0,
    "VSSTRESU": "BEATS/MIN",
    "VSSTAT": "",
    "VSLOC": "",
    "VSBLFL": "",
    "VISITNUM": 4.0,
    "VISIT": "WEEK 2",
    "VISITDY": 14.0,
    "VSDTC": "2013-08-01",
    "VSDY": 14.0,
    "VSTPT": "AFTER LYING DOWN FOR 5 MINUTES",
    "VSTPTNUM": 815.0,
    "VSELTM": "PT5M",
    "VSTPTREF": "PATIENT SUPINE"
  },
  {
    "STUDYID": "CDISCPILOT01",
    "DOMAIN": "VS",
    "USUBJID": "01-701-1028",
    "VSSEQ": 57.0,
    "VSTESTCD": "PULSE",
    "VSTEST": "Pulse Rate",
    "VSPOS": "STANDING",
    "VSORRES": "77",
    "VSORRESU": "BEATS/MIN",
    "VSSTRESC": "77",
    "VSSTRESN": 77.0,
    "VSSTRESU": "BEATS/MIN",
    "VSSTAT": "",
    "VSLOC": "",
    "VSBLFL": "",
    "VISITNUM": 4.0,
    "VISIT": "WEEK 2",
    "VISITDY": 14.0,
    "VSDTC": "2013-08-01",
    "VSDY": 14.0,
    "VSTPT": "AFTER STANDING FOR 1 MINUTE",
    "VSTPTNUM": 816.0,
    "VSELTM": "PT1M",
    "VSTPTREF": "PATIENT STANDING"
  },
  {
    "STUDYID": "CDISCPILOT01",
    "DOMAIN": "VS",
    "USUBJID": "01-701-1028",
    "VSSEQ": 58.0,
    "VSTESTCD": "PULSE",
    "VSTEST": "Pulse Rate",
    "VSPOS": "STANDING",
    "VSORRES": "72",
    "VSORRESU": "BEATS/MIN",
    "VSSTRESC": "72",
    "VSSTRESN": 72.0,
    "VSSTRESU": "BEATS/MIN",
    "VSSTAT": "",
    "VSLOC": "",
    "VSBLFL": "",
    "VISITNUM": 4.0,
    "VISIT": "WEEK 2",
    "VISITDY": 14.0,
    "VSDTC": "2013-08-01",
    "VSDY": 14.0,
    "VSTPT": "AFTER STANDING FOR 3 MINUTES",
    "VSTPTNUM": 817.0,
    "VSELTM": "PT3M",
    "VSTPTREF": "PATIENT STANDING"
  },
  {
    "STUDYID": "CDISCPILOT01",
    "DOMAIN": "VS",
    "USUBJID": "01-701-1028",
    "VSSEQ": 59.0,
    "VSTESTCD": "PULSE",
    "VSTEST": "Pulse Rate",
    "VSPOS": "SUPINE",
    "VSORRES": "68",
    "VSORRESU": "BEATS/MIN",
    "VSSTRESC": "68",
    "VSSTRESN": 68.0,
    "VSSTRESU": "BEATS/MIN",
    "VSSTAT": "",
    "VSLOC": "",
    "VSBLFL": "",
    "VISITNUM": 5.0,
    "VISIT": "WEEK 4",
    "VISITDY": 28.0,
    "VSDTC": "2013-08-14",
    "VSDY": 27.0,
    "VSTPT": "AFTER LYING DOWN FOR 5 MINUTES",
    "VSTPTNUM": 815.0,
    "VSELTM": "PT5M",
    "VSTPTREF": "PATIENT SUPINE"
  },
  {
    "STUDYID": "CDISCPILOT01",
    "DOMAIN": "VS",
    "USUBJID": "01-701-1028",
    "VSSEQ": 60.0,
    "VSTESTCD": "PULSE",
    "VSTEST": "Pulse Rate",
    "VSPOS": "STANDING",
    "VSORRES": "81",
    "VSORRESU": "BEATS/MIN",
    "VSSTRESC": "81",
    "VSSTRESN": 81.0,
    "VSSTRESU": "BEATS/MIN",
    "VSSTAT": "",
    "VSLOC": "",
    "VSBLFL": "",
    "VISITNUM": 5.0,
    "VISIT": "WEEK 4",
    "VISITDY": 28.0,
    "VSDTC": "2013-08-14",
    "VSDY": 27.0,
    "VSTPT": "AFTER STANDING FOR 1 MINUTE",
    "VSTPTNUM": 816.0,
    "VSELTM": "PT1M",
    "VSTPTREF": "PATIENT STANDING"
  },
  {
    "STUDYID": "CDISCPILOT01",
    "DOMAIN": "VS",
    "USUBJID": "01-701-1028",
    "VSSEQ": 61.0,
    "VSTESTCD": "PULSE",
    "VSTEST": "Pulse Rate",
    "VSPOS": "STANDING",
    "VSORRES": "76",
    "VSORRESU": "BEATS/MIN",
    "VSSTRESC": "76",
    "VSSTRESN": 76.0,
    "VSSTRESU": "BEATS/MIN",
    "VSSTAT": "",
    "VSLOC": "",
    "VSBLFL": "",
    "VISITNUM": 5.0,
    "VISIT": "WEEK 4",
    "VISITDY": 28.0,
    "VSDTC": "2013-08-14",
    "VSDY": 27.0,
    "VSTPT": "AFTER STANDING FOR 3 MINUTES",
    "VSTPTNUM": 817.0,
    "VSELTM": "PT3M",
    "VSTPTREF": "PATIENT STANDING"
  },
  {
    "STUDYID": "CDISCPILOT01",
    "DOMAIN": "VS",
    "USUBJID": "01-701-1028",
    "VSSEQ": 62.0,
    "VSTESTCD": "PULSE",
    "VSTEST": "Pulse Rate",
    "VSPOS": "SUPINE",
    "VSORRES": "63",
    "VSORRESU": "BEATS/MIN",
    "VSSTRESC": "63",
    "VSSTRESN": 63.0,
    "VSSTRESU": "BEATS/MIN",
    "VSSTAT": "",
    "VSLOC": "",
    "VSBLFL": "",
    "VISITNUM": 6.0,
    "VISIT": "AMBUL ECG REMOVAL",
    "VISITDY": 30.0,
    "VSDTC": "2013-08-16",
    "VSDY": 29.0,
    "VSTPT": "AFTER LYING DOWN FOR 5 MINUTES",
    "VSTPTNUM": 815.0,
    "VSELTM": "PT5M",
    "VSTPTREF": "PATIENT SUPINE"
  },
  {
    "STUDYID": "CDISCPILOT01",
    "DOMAIN": "VS",
    "USUBJID": "01-701-1028",
    "VSSEQ": 63.0,
    "VSTESTCD": "PULSE",
    "VSTEST": "Pulse Rate",
    "VSPOS": "STANDING",
    "VSORRES": "68",
    "VSORRESU": "BEATS/MIN",
    "VSSTRESC": "68",
    "VSSTRESN": 68.0,
    "VSSTRESU": "BEATS/MIN",
    "VSSTAT": "",
    "VSLOC": "",
    "VSBLFL": "",
    "VISITNUM": 6.0,
    "VISIT": "AMBUL ECG REMOVAL",
    "VISITDY": 30.0,
    "VSDTC": "2013-08-16",
    "VSDY": 29.0,
    "VSTPT": "AFTER STANDING FOR 1 MINUTE",
    "VSTPTNUM": 816.0,
    "VSELTM": "PT1M",
    "VSTPTREF": "PATIENT STANDING"
  },
  {
    "STUDYID": "CDISCPILOT01",
    "DOMAIN": "VS",
    "USUBJID": "01-701-1028",
    "VSSEQ": 64.0,
    "VSTESTCD": "PULSE",
    "VSTEST": "Pulse Rate",
    "VSPOS": "STANDING",
    "VSORRES": "70",
    "VSORRESU": "BEATS/MIN",
    "VSSTRESC": "70",
    "VSSTRESN": 70.0,
    "VSSTRESU": "BEATS/MIN",
    "VSSTAT": "",
    "VSLOC": "",
    "VSBLFL": "",
    "VISITNUM": 6.0,
    "VISIT": "AMBUL ECG REMOVAL",
    "VISITDY": 30.0,
    "VSDTC": "2013-08-16",
    "VSDY": 29.0,
    "VSTPT": "AFTER STANDING FOR 3 MINUTES",
    "VSTPTNUM": 817.0,
    "VSELTM": "PT3M",
    "VSTPTREF": "PATIENT STANDING"
  },
  {
    "STUDYID": "CDISCPILOT01",
    "DOMAIN": "VS",
    "USUBJID": "01-701-1028",
    "VSSEQ": 65.0,
    "VSTESTCD": "PULSE",
    "VSTEST": "Pulse Rate",
    "VSPOS": "SUPINE",
    "VSORRES": "56",
    "VSORRESU": "BEATS/MIN",
    "VSSTRESC": "56",
    "VSSTRESN": 56.0,
    "VSSTRESU": "BEATS/MIN",
    "VSSTAT": "",
    "VSLOC": "",
    "VSBLFL": "",
    "VISITNUM": 7.0,
    "VISIT": "WEEK 6",
    "VISITDY": 42.0,
    "VSDTC": "2013-08-29",
    "VSDY": 42.0,
    "VSTPT": "AFTER LYING DOWN FOR 5 MINUTES",
    "VSTPTNUM": 815.0,
    "VSELTM": "PT5M",
    "VSTPTREF": "PATIENT SUPINE"
  },
  {
    "STUDYID": "CDISCPILOT01",
    "DOMAIN": "VS",
    "USUBJID": "01-701-1028",
    "VSSEQ": 66.0,
    "VSTESTCD": "PULSE",
    "VSTEST": "Pulse Rate",
    "VSPOS": "STANDING",
    "VSORRES": "60",
    "VSORRESU": "BEATS/MIN",
    "VSSTRESC": "60",
    "VSSTRESN": 60.0,
    "VSSTRESU": "BEATS/MIN",
    "VSSTAT": "",
    "VSLOC": "",
    "VSBLFL": "",
    "VISITNUM": 7.0,
    "VISIT": "WEEK 6",
    "VISITDY": 42.0,
    "VSDTC": "2013-08-29",
    "VSDY": 42.0,
    "VSTPT": "AFTER STANDING FOR 1 MINUTE",
    "VSTPTNUM": 816.0,
    "VSELTM": "PT1M",
    "VSTPTREF": "PATIENT STANDING"
  },
  {
    "STUDYID": "CDISCPILOT01",
    "DOMAIN": "VS",
    "USUBJID": "01-701-1028",
    "VSSEQ": 67.0,
    "VSTESTCD": "PULSE",
    "VSTEST": "Pulse Rate",
    "VSPOS": "STANDING",
    "VSORRES": "62",
    "VSORRESU": "BEATS/MIN",
    "VSSTRESC": "62",
    "VSSTRESN": 62.0,
    "VSSTRESU": "BEATS/MIN",
    "VSSTAT": "",
    "VSLOC": "",
    "VSBLFL": "",
    "VISITNUM": 7.0,
    "VISIT": "WEEK 6",
    "VISITDY": 42.0,
    "VSDTC": "2013-08-29",
    "VSDY": 42.0,
    "VSTPT": "AFTER STANDING FOR 3 MINUTES",
    "VSTPTNUM": 817.0,
    "VSELTM": "PT3M",
    "VSTPTREF": "PATIENT STANDING"
  },
  {
    "STUDYID": "CDISCPILOT01",
    "DOMAIN": "VS",
    "USUBJID": "01-701-1028",
    "VSSEQ": 68.0,
    "VSTESTCD": "PULSE",
    "VSTEST": "Pulse Rate",
    "VSPOS": "SUPINE",
    "VSORRES": "67",
    "VSORRESU": "BEATS/MIN",
    "VSSTRESC": "67",
    "VSSTRESN": 67.0,
    "VSSTRESU": "BEATS/MIN",
    "VSSTAT": "",
    "VSLOC": "",
    "VSBLFL": "",
    "VISITNUM": 8.0,
    "VISIT": "WEEK 8",
    "VISITDY": 56.0,
    "VSDTC": "2013-09-10",
    "VSDY": 54.0,
    "VSTPT": "AFTER LYING DOWN FOR 5 MINUTES",
    "VSTPTNUM": 815.0,
    "VSELTM": "PT5M",
    "VSTPTREF": "PATIENT SUPINE"
  },
  {
    "STUDYID": "CDISCPILOT01",
    "DOMAIN": "VS",
    "USUBJID": "01-701-1028",
    "VSSEQ": 69.0,
    "VSTESTCD": "PULSE",
    "VSTEST": "Pulse Rate",
    "VSPOS": "STANDING",
    "VSORRES": "76",
    "VSORRESU": "BEATS/MIN",
    "VSSTRESC": "76",
    "VSSTRESN": 76.0,
    "VSSTRESU": "BEATS/MIN",
    "VSSTAT": "",
    "VSLOC": "",
    "VSBLFL": "",
    "VISITNUM": 8.0,
    "VISIT": "WEEK 8",
    "VISITDY": 56.0,
    "VSDTC": "2013-09-10",
    "VSDY": 54.0,
    "VSTPT": "AFTER STANDING FOR 1 MINUTE",
    "VSTPTNUM": 816.0,
    "VSELTM": "PT1M",
    "VSTPTREF": "PATIENT STANDING"
  },
  {
    "STUDYID": "CDISCPILOT01",
    "DOMAIN": "VS",
    "USUBJID": "01-701-1028",
    "VSSEQ": 70.0,
    "VSTESTCD": "PULSE",
    "VSTEST": "Pulse Rate",
    "VSPOS": "STANDING",
    "VSORRES": "81",
    "VSORRESU": "BEATS/MIN",
    "VSSTRESC": "81",
    "VSSTRESN": 81.0,
    "VSSTRESU": "BEATS/MIN",
    "VSSTAT": "",
    "VSLOC": "",
    "VSBLFL": "",
    "VISITNUM": 8.0,
    "VISIT": "WEEK 8",
    "VISITDY": 56.0,
    "VSDTC": "2013-09-10",
    "VSDY": 54.0,
    "VSTPT": "AFTER STANDING FOR 3 MINUTES",
    "VSTPTNUM": 817.0,
    "VSELTM": "PT3M",
    "VSTPTREF": "PATIENT STANDING"
  },
  {
    "STUDYID": "CDISCPILOT01",
    "DOMAIN": "VS",
    "USUBJID": "01-701-1028",
    "VSSEQ": 71.0,
    "VSTESTCD": "PULSE",
    "VSTEST": "Pulse Rate",
    "VSPOS": "SUPINE",
    "VSORRES": "61",
    "VSORRESU": "BEATS/MIN",
    "VSSTRESC": "61",
    "VSSTRESN": 61.0,
    "VSSTRESU": "BEATS/MIN",
    "VSSTAT": "",
    "VSLOC": "",
    "VSBLFL": "",
    "VISITNUM": 9.0,
    "VISIT": "WEEK 12",
    "VISITDY": 84.0,
    "VSDTC": "2013-10-09",
    "VSDY": 83.0,
    "VSTPT": "AFTER LYING DOWN FOR 5 MINUTES",
    "VSTPTNUM": 815.0,
    "VSELTM": "PT5M",
    "VSTPTREF": "PATIENT SUPINE"
  },
  {
    "STUDYID": "CDISCPILOT01",
    "DOMAIN": "VS",
    "USUBJID": "01-701-1028",
    "VSSEQ": 72.0,
    "VSTESTCD": "PULSE",
    "VSTEST": "Pulse Rate",
    "VSPOS": "STANDING",
    "VSORRES": "64",
    "VSORRESU": "BEATS/MIN",
    "VSSTRESC": "64",
    "VSSTRESN": 64.0,
    "VSSTRESU": "BEATS/MIN",
    "VSSTAT": "",
    "VSLOC": "",
    "VSBLFL": "",
    "VISITNUM": 9.0,
    "VISIT": "WEEK 12",
    "VISITDY": 84.0,
    "VSDTC": "2013-10-09",
    "VSDY": 83.0,
    "VSTPT": "AFTER STANDING FOR 1 MINUTE",
    "VSTPTNUM": 816.0,
    "VSELTM": "PT1M",
    "VSTPTREF": "PATIENT STANDING"
  },
  {
    "STUDYID": "CDISCPILOT01",
    "DOMAIN": "VS",
    "USUBJID": "01-701-1028",
    "VSSEQ": 73.0,
    "VSTESTCD": "PULSE",
    "VSTEST": "Pulse Rate",
    "VSPOS": "STANDING",
    "VSORRES": "70",
    "VSORRESU": "BEATS/MIN",
    "VSSTRESC": "70",
    "VSSTRESN": 70.0,
    "VSSTRESU": "BEATS/MIN",
    "VSSTAT": "",
    "VSLOC": "",
    "VSBLFL": "",
    "VISITNUM": 9.0,
    "VISIT": "WEEK 12",
    "VISITDY": 84.0,
    "VSDTC": "2013-10-09",
    "VSDY": 83.0,
    "VSTPT": "AFTER STANDING FOR 3 MINUTES",
    "VSTPTNUM": 817.0,
    "VSELTM": "PT3M",
    "VSTPTREF": "PATIENT STANDING"
  },
  {
    "STUDYID": "CDISCPILOT01",
    "DOMAIN": "VS",
    "USUBJID": "01-701-1028",
    "VSSEQ": 74.0,
    "VSTESTCD": "PULSE",
    "VSTEST": "Pulse Rate",
    "VSPOS": "SUPINE",
    "VSORRES": "60",
    "VSORRESU": "BEATS/MIN",
    "VSSTRESC": "60",
    "VSSTRESN": 60.0,
    "VSSTRESU": "BEATS/MIN",
    "VSSTAT": "",
    "VSLOC": "",
    "VSBLFL": "",
    "VISITNUM": 10.0,
    "VISIT": "WEEK 16",
    "VISITDY": 112.0,
    "VSDTC": "2013-11-06",
    "VSDY": 111.0,
    "VSTPT": "AFTER LYING DOWN FOR 5 MINUTES",
    "VSTPTNUM": 815.0,
    "VSELTM": "PT5M",
    "VSTPTREF": "PATIENT SUPINE"
  },
  {
    "STUDYID": "CDISCPILOT01",
    "DOMAIN": "VS",
    "USUBJID": "01-701-1028",
    "VSSEQ": 75.0,
    "VSTESTCD": "PULSE",
    "VSTEST": "Pulse Rate",
    "VSPOS": "STANDING",
    "VSORRES": "70",
    "VSORRESU": "BEATS/MIN",
    "VSSTRESC": "70",
    "VSSTRESN": 70.0,
    "VSSTRESU": "BEATS/MIN",
    "VSSTAT": "",
    "VSLOC": "",
    "VSBLFL": "",
    "VISITNUM": 10.0,
    "VISIT": "WEEK 16",
    "VISITDY": 112.0,
    "VSDTC": "2013-11-06",
    "VSDY": 111.0,
    "VSTPT": "AFTER STANDING FOR 1 MINUTE",
    "VSTPTNUM": 816.0,
    "VSELTM": "PT1M",
    "VSTPTREF": "PATIENT STANDING"
  },
  {
    "STUDYID": "CDISCPILOT01",
    "DOMAIN": "VS",
    "USUBJID": "01-701-1028",
    "VSSEQ": 76.0,
    "VSTESTCD": "PULSE",
    "VSTEST": "Pulse Rate",
    "VSPOS": "STANDING",
    "VSORRES": "69",
    "VSORRESU": "BEATS/MIN",
    "VSSTRESC": "69",
    "VSSTRESN": 69.0,
    "VSSTRESU": "BEATS/MIN",
    "VSSTAT": "",
    "VSLOC": "",
    "VSBLFL": "",
    "VISITNUM": 10.0,
    "VISIT": "WEEK 16",
    "VISITDY": 112.0,
    "VSDTC": "2013-11-06",
    "VSDY": 111.0,
    "VSTPT": "AFTER STANDING FOR 3 MINUTES",
    "VSTPTNUM": 817.0,
    "VSELTM": "PT3M",
    "VSTPTREF": "PATIENT STANDING"
  },
  {
    "STUDYID": "CDISCPILOT01",
    "DOMAIN": "VS",
    "USUBJID": "01-701-1028",
    "VSSEQ": 77.0,
    "VSTESTCD": "PULSE",
    "VSTEST": "Pulse Rate",
    "VSPOS": "SUPINE",
    "VSORRES": "60",
    "VSORRESU": "BEATS/MIN",
    "VSSTRESC": "60",
    "VSSTRESN": 60.0,
    "VSSTRESU": "BEATS/MIN",
    "VSSTAT": "",
    "VSLOC": "",
    "VSBLFL": "",
    "VISITNUM": 11.0,
    "VISIT": "WEEK 20",
    "VISITDY": 140.0,
    "VSDTC": "2013-12-04",
    "VSDY": 139.0,
    "VSTPT": "AFTER LYING DOWN FOR 5 MINUTES",
    "VSTPTNUM": 815.0,
    "VSELTM": "PT5M",
    "VSTPTREF": "PATIENT SUPINE"
  },
  {
    "STUDYID": "CDISCPILOT01",
    "DOMAIN": "VS",
    "USUBJID": "01-701-1028",
    "VSSEQ": 78.0,
    "VSTESTCD": "PULSE",
    "VSTEST": "Pulse Rate",
    "VSPOS": "STANDING",
    "VSORRES": "67",
    "VSORRESU": "BEATS/MIN",
    "VSSTRESC": "67",
    "VSSTRESN": 67.0,
    "VSSTRESU": "BEATS/MIN",
    "VSSTAT": "",
    "VSLOC": "",
    "VSBLFL": "",
    "VISITNUM": 11.0,
    "VISIT": "WEEK 20",
    "VISITDY": 140.0,
    "VSDTC": "2013-12-04",
    "VSDY": 139.0,
    "VSTPT": "AFTER STANDING FOR 1 MINUTE",
    "VSTPTNUM": 816.0,
    "VSELTM": "PT1M",
    "VSTPTREF": "PATIENT STANDING"
  },
  {
    "STUDYID": "CDISCPILOT01",
    "DOMAIN": "VS",
    "USUBJID": "01-701-1028",
    "VSSEQ": 79.0,
    "VSTESTCD": "PULSE",
    "VSTEST": "Pulse Rate",
    "VSPOS": "STANDING",
    "VSORRES": "69",
    "VSORRESU": "BEATS/MIN",
    "VSSTRESC": "69",
    "VSSTRESN": 69.0,
    "VSSTRESU": "BEATS/MIN",
    "VSSTAT": "",
    "VSLOC": "",
    "VSBLFL": "",
    "VISITNUM": 11.0,
    "VISIT": "WEEK 20",
    "VISITDY": 140.0,
    "VSDTC": "2013-12-04",
    "VSDY": 139.0,
    "VSTPT": "AFTER STANDING FOR 3 MINUTES",
    "VSTPTNUM": 817.0,
    "VSELTM": "PT3M",
    "VSTPTREF": "PATIENT STANDING"
  },
  {
    "STUDYID": "CDISCPILOT01",
    "DOMAIN": "VS",
    "USUBJID": "01-701-1028",
    "VSSEQ": 80.0,
    "VSTESTCD": "PULSE",
    "VSTEST": "Pulse Rate",
    "VSPOS": "SUPINE",
    "VSORRES": "62",
    "VSORRESU": "BEATS/MIN",
    "VSSTRESC": "62",
    "VSSTRESN": 62.0,
    "VSSTRESU": "BEATS/MIN",
    "VSSTAT": "",
    "VSLOC": "",
    "VSBLFL": "",
    "VISITNUM": 12.0,
    "VISIT": "WEEK 24",
    "VISITDY": 168.0,
    "VSDTC": "2014-01-06",
    "VSDY": 172.0,
    "VSTPT": "AFTER LYING DOWN FOR 5 MINUTES",
    "VSTPTNUM": 815.0,
    "VSELTM": "PT5M",
    "VSTPTREF": "PATIENT SUPINE"
  },
  {
    "STUDYID": "CDISCPILOT01",
    "DOMAIN": "VS",
    "USUBJID": "01-701-1028",
    "VSSEQ": 81.0,
    "VSTESTCD": "PULSE",
    "VSTEST": "Pulse Rate",
    "VSPOS": "STANDING",
    "VSORRES": "72",
    "VSORRESU": "BEATS/MIN",
    "VSSTRESC": "72",
    "VSSTRESN": 72.0,
    "VSSTRESU": "BEATS/MIN",
    "VSSTAT": "",
    "VSLOC": "",
    "VSBLFL": "",
    "VISITNUM": 12.0,
    "VISIT": "WEEK 24",
    "VISITDY": 168.0,
    "VSDTC": "2014-01-06",
    "VSDY": 172.0,
    "VSTPT": "AFTER STANDING FOR 1 MINUTE",
    "VSTPTNUM": 816.0,
    "VSELTM": "PT1M",
    "VSTPTREF": "PATIENT STANDING"
  },
  {
    "STUDYID": "CDISCPILOT01",
    "DOMAIN": "VS",
    "USUBJID": "01-701-1028",
    "VSSEQ": 82.0,
    "VSTESTCD": "PULSE",
    "VSTEST": "Pulse Rate",
    "VSPOS": "STANDING",
    "VSORRES": "73",
    "VSORRESU": "BEATS/MIN",
    "VSSTRESC": "73",
    "VSSTRESN": 73.0,
    "VSSTRESU": "BEATS/MIN",
    "VSSTAT": "",
    "VSLOC": "",
    "VSBLFL": "",
    "VISITNUM": 12.0,
    "VISIT": "WEEK 24",
    "VISITDY": 168.0,
    "VSDTC": "2014-01-06",
    "VSDY": 172.0,
    "VSTPT": "AFTER STANDING FOR 3 MINUTES",
    "VSTPTNUM": 817.0,
    "VSELTM": "PT3M",
    "VSTPTREF": "PATIENT STANDING"
  },
  {
    "STUDYID": "CDISCPILOT01",
    "DOMAIN": "VS",
    "USUBJID": "01-701-1028",
    "VSSEQ": 83.0,
    "VSTESTCD": "PULSE",
    "VSTEST": "Pulse Rate",
    "VSPOS": "SUPINE",
    "VSORRES": "53",
    "VSORRESU": "BEATS/MIN",
    "VSSTRESC": "53",
    "VSSTRESN": 53.0,
    "VSSTRESU": "BEATS/MIN",
    "VSSTAT": "",
    "VSLOC": "",
    "VSBLFL": "",
    "VISITNUM": 13.0,
    "VISIT": "WEEK 26",
    "VISITDY": 182.0,
    "VSDTC": "2014-01-14",
    "VSDY": 180.0,
    "VSTPT": "AFTER LYING DOWN FOR 5 MINUTES",
    "VSTPTNUM": 815.0,
    "VSELTM": "PT5M",
    "VSTPTREF": "PATIENT SUPINE"
  },
  {
    "STUDYID": "CDISCPILOT01",
    "DOMAIN": "VS",
    "USUBJID": "01-701-1028",
    "VSSEQ": 84.0,
    "VSTESTCD": "PULSE",
    "VSTEST": "Pulse Rate",
    "VSPOS": "STANDING",
    "VSORRES": "58",
    "VSORRESU": "BEATS/MIN",
    "VSSTRESC": "58",
    "VSSTRESN": 58.0,
    "VSSTRESU": "BEATS/MIN",
    "VSSTAT": "",
    "VSLOC": "",
    "VSBLFL": "",
    "VISITNUM": 13.0,
    "VISIT": "WEEK 26",
    "VISITDY": 182.0,
    "VSDTC": "2014-01-14",
    "VSDY": 180.0,
    "VSTPT": "AFTER STANDING FOR 1 MINUTE",
    "VSTPTNUM": 816.0,
    "VSELTM": "PT1M",
    "VSTPTREF": "PATIENT STANDING"
  },
  {
    "STUDYID": "CDISCPILOT01",
    "DOMAIN": "VS",
    "USUBJID": "01-701-1028",
    "VSSEQ": 85.0,
    "VSTESTCD": "PULSE",
    "VSTEST": "Pulse Rate",
    "VSPOS": "STANDING",
    "VSORRES": "59",
    "VSORRESU": "BEATS/MIN",
    "VSSTRESC": "59",
    "VSSTRESN": 59.0,
    "VSSTRESU": "BEATS/MIN",
    "VSSTAT": "",
    "VSLOC": "",
    "VSBLFL": "",
    "VISITNUM": 13.0,
    "VISIT": "WEEK 26",
    "VISITDY": 182.0,
    "VSDTC": "2014-01-14",
    "VSDY": 180.0,
    "VSTPT": "AFTER STANDING FOR 3 MINUTES",
    "VSTPTNUM": 817.0,
    "VSELTM": "PT3M",
    "VSTPTREF": "PATIENT STANDING"
  },
  {
    "STUDYID": "CDISCPILOT01",
    "DOMAIN": "VS",
    "USUBJID": "01-701-1028",
    "VSSEQ": 86.0,
    "VSTESTCD": "SYSBP",
    "VSTEST": "Systolic Blood Pressure",
    "VSPOS": "SUPINE",
    "VSORRES": "143",
    "VSORRESU": "mmHg",
    "VSSTRESC": "143",
    "VSSTRESN": 143.0,
    "VSSTRESU": "mmHg",
    "VSSTAT": "",
    "VSLOC": "",
    "VSBLFL": "",
    "VISITNUM": 1.0,
    "VISIT": "SCREENING 1",
    "VISITDY": -7.0,
    "VSDTC": "2013-07-11",
    "VSDY": -8.0,
    "VSTPT": "AFTER LYING DOWN FOR 5 MINUTES",
    "VSTPTNUM": 815.0,
    "VSELTM": "PT5M",
    "VSTPTREF": "PATIENT SUPINE"
  },
  {
    "STUDYID": "CDISCPILOT01",
    "DOMAIN": "VS",
    "USUBJID": "01-701-1028",
    "VSSEQ": 87.0,
    "VSTESTCD": "SYSBP",
    "VSTEST": "Systolic Blood Pressure",
    "VSPOS": "STANDING",
    "VSORRES": "140",
    "VSORRESU": "mmHg",
    "VSSTRESC": "140",
    "VSSTRESN": 140.0,
    "VSSTRESU": "mmHg",
    "VSSTAT": "",
    "VSLOC": "",
    "VSBLFL": "",
    "VISITNUM": 1.0,
    "VISIT": "SCREENING 1",
    "VISITDY": -7.0,
    "VSDTC": "2013-07-11",
    "VSDY": -8.0,
    "VSTPT": "AFTER STANDING FOR 1 MINUTE",
    "VSTPTNUM": 816.0,
    "VSELTM": "PT1M",
    "VSTPTREF": "PATIENT STANDING"
  },
  {
    "STUDYID": "CDISCPILOT01",
    "DOMAIN": "VS",
    "USUBJID": "01-701-1028",
    "VSSEQ": 88.0,
    "VSTESTCD": "SYSBP",
    "VSTEST": "Systolic Blood Pressure",
    "VSPOS": "STANDING",
    "VSORRES": "132",
    "VSORRESU": "mmHg",
    "VSSTRESC": "132",
    "VSSTRESN": 132.0,
    "VSSTRESU": "mmHg",
    "VSSTAT": "",
    "VSLOC": "",
    "VSBLFL": "",
    "VISITNUM": 1.0,
    "VISIT": "SCREENING 1",
    "VISITDY": -7.0,
    "VSDTC": "2013-07-11",
    "VSDY": -8.0,
    "VSTPT": "AFTER STANDING FOR 3 MINUTES",
    "VSTPTNUM": 817.0,
    "VSELTM": "PT3M",
    "VSTPTREF": "PATIENT STANDING"
  },
  {
    "STUDYID": "CDISCPILOT01",
    "DOMAIN": "VS",
    "USUBJID": "01-701-1028",
    "VSSEQ": 89.0,
    "VSTESTCD": "SYSBP",
    "VSTEST": "Systolic Blood Pressure",
    "VSPOS": "SUPINE",
    "VSORRES": "122",
    "VSORRESU": "mmHg",
    "VSSTRESC": "122",
    "VSSTRESN": 122.0,
    "VSSTRESU": "mmHg",
    "VSSTAT": "",
    "VSLOC": "",
    "VSBLFL": "",
    "VISITNUM": 2.0,
    "VISIT": "SCREENING 2",
    "VISITDY": -1.0,
    "VSDTC": "2013-07-17",
    "VSDY": -2.0,
    "VSTPT": "AFTER LYING DOWN FOR 5 MINUTES",
    "VSTPTNUM": 815.0,
    "VSELTM": "PT5M",
    "VSTPTREF": "PATIENT SUPINE"
  },
  {
    "STUDYID": "CDISCPILOT01",
    "DOMAIN": "VS",
    "USUBJID": "01-701-1028",
    "VSSEQ": 90.0,
    "VSTESTCD": "SYSBP",
    "VSTEST": "Systolic Blood Pressure",
    "VSPOS": "STANDING",
    "VSORRES": "142",
    "VSORRESU": "mmHg",
    "VSSTRESC": "142",
    "VSSTRESN": 142.0,
    "VSSTRESU": "mmHg",
    "VSSTAT": "",
    "VSLOC": "",
    "VSBLFL": "",
    "VISITNUM": 2.0,
    "VISIT": "SCREENING 2",
    "VISITDY": -1.0,
    "VSDTC": "2013-07-17",
    "VSDY": -2.0,
    "VSTPT": "AFTER STANDING FOR 1 MINUTE",
    "VSTPTNUM": 816.0,
    "VSELTM": "PT1M",
    "VSTPTREF": "PATIENT STANDING"
  },
  {
    "STUDYID": "CDISCPILOT01",
    "DOMAIN": "VS",
    "USUBJID": "01-701-1028",
    "VSSEQ": 91.0,
    "VSTESTCD": "SYSBP",
    "VSTEST": "Systolic Blood Pressure",
    "VSPOS": "STANDING",
    "VSORRES": "132",
    "VSORRESU": "mmHg",
    "VSSTRESC": "132",
    "VSSTRESN": 132.0,
    "VSSTRESU": "mmHg",
    "VSSTAT": "",
    "VSLOC": "",
    "VSBLFL": "",
    "VISITNUM": 2.0,
    "VISIT": "SCREENING 2",
    "VISITDY": -1.0,
    "VSDTC": "2013-07-17",
    "VSDY": -2.0,
    "VSTPT": "AFTER STANDING FOR 3 MINUTES",
    "VSTPTNUM": 817.0,
    "VSELTM": "PT3M",
    "VSTPTREF": "PATIENT STANDING"
  },
  {
    "STUDYID": "CDISCPILOT01",
    "DOMAIN": "VS",
    "USUBJID": "01-701-1028",
    "VSSEQ": 92.0,
    "VSTESTCD": "SYSBP",
    "VSTEST": "Systolic Blood Pressure",
    "VSPOS": "SUPINE",
    "VSORRES": "138",
    "VSORRESU": "mmHg",
    "VSSTRESC": "138",
    "VSSTRESN": 138.0,
    "VSSTRESU": "mmHg",
    "VSSTAT": "",
    "VSLOC": "",
    "VSBLFL": "Y",
    "VISITNUM": 3.0,
    "VISIT": "BASELINE",
    "VISITDY": 1.0,
    "VSDTC": "2013-07-19",
    "VSDY": 1.0,
    "VSTPT": "AFTER LYING DOWN FOR 5 MINUTES",
    "VSTPTNUM": 815.0,
    "VSELTM": "PT5M",
    "VSTPTREF": "PATIENT SUPINE"
  },
  {
    "STUDYID": "CDISCPILOT01",
    "DOMAIN": "VS",
    "USUBJID": "01-701-1028",
    "VSSEQ": 93.0,
    "VSTESTCD": "SYSBP",
    "VSTEST": "Systolic Blood Pressure",
    "VSPOS": "STANDING",
    "VSORRES": "145",
    "VSORRESU": "mmHg",
    "VSSTRESC": "145",
    "VSSTRESN": 145.0,
    "VSSTRESU": "mmHg",
    "VSSTAT": "",
    "VSLOC": "",
    "VSBLFL": "Y",
    "VISITNUM": 3.0,
    "VISIT": "BASELINE",
    "VISITDY": 1.0,
    "VSDTC": "2013-07-19",
    "VSDY": 1.0,
    "VSTPT": "AFTER STANDING FOR 1 MINUTE",
    "VSTPTNUM": 816.0,
    "VSELTM": "PT1M",
    "VSTPTREF": "PATIENT STANDING"
  },
  {
    "STUDYID": "CDISCPILOT01",
    "DOMAIN": "VS",
    "USUBJID": "01-701-1028",
    "VSSEQ": 94.0,
    "VSTESTCD": "SYSBP",
    "VSTEST": "Systolic Blood Pressure",
    "VSPOS": "STANDING",
    "VSORRES": "139",
    "VSORRESU": "mmHg",
    "VSSTRESC": "139",
    "VSSTRESN": 139.0,
    "VSSTRESU": "mmHg",
    "VSSTAT": "",
    "VSLOC": "",
    "VSBLFL": "Y",
    "VISITNUM": 3.0,
    "VISIT": "BASELINE",
    "VISITDY": 1.0,
    "VSDTC": "2013-07-19",
    "VSDY": 1.0,
    "VSTPT": "AFTER STANDING FOR 3 MINUTES",
    "VSTPTNUM": 817.0,
    "VSELTM": "PT3M",
    "VSTPTREF": "PATIENT STANDING"
  },
  {
    "STUDYID": "CDISCPILOT01",
    "DOMAIN": "VS",
    "USUBJID": "01-701-1028",
    "VSSEQ": 95.0,
    "VSTESTCD": "SYSBP",
    "VSTEST": "Systolic Blood Pressure",
    "VSPOS": "SUPINE",
    "VSORRES": "138",
    "VSORRESU": "mmHg",
    "VSSTRESC": "138",
    "VSSTRESN": 138.0,
    "VSSTRESU": "mmHg",
    "VSSTAT": "",
    "VSLOC": "",
    "VSBLFL": "",
    "VISITNUM": 3.5,
    "VISIT": "AMBUL ECG PLACEMENT",
    "VISITDY": 13.0,
    "VSDTC": "2013-07-31",
    "VSDY": 13.0,
    "VSTPT": "AFTER LYING DOWN FOR 5 MINUTES",
    "VSTPTNUM": 815.0,
    "VSELTM": "PT5M",
    "VSTPTREF": "PATIENT SUPINE"
  },
  {
    "STUDYID": "CDISCPILOT01",
    "DOMAIN": "VS",
    "USUBJID": "01-701-1028",
    "VSSEQ": 96.0,
    "VSTESTCD": "SYSBP",
    "VSTEST": "Systolic Blood Pressure",
    "VSPOS": "STANDING",
    "VSORRES": "137",
    "VSORRESU": "mmHg",
    "VSSTRESC": "137",
    "VSSTRESN": 137.0,
    "VSSTRESU": "mmHg",
    "VSSTAT": "",
    "VSLOC": "",
    "VSBLFL": "",
    "VISITNUM": 3.5,
    "VISIT": "AMBUL ECG PLACEMENT",
    "VISITDY": 13.0,
    "VSDTC": "2013-07-31",
    "VSDY": 13.0,
    "VSTPT": "AFTER STANDING FOR 1 MINUTE",
    "VSTPTNUM": 816.0,
    "VSELTM": "PT1M",
    "VSTPTREF": "PATIENT STANDING"
  },
  {
    "STUDYID": "CDISCPILOT01",
    "DOMAIN": "VS",
    "USUBJID": "01-701-1028",
    "VSSEQ": 97.0,
    "VSTESTCD": "SYSBP",
    "VSTEST": "Systolic Blood Pressure",
    "VSPOS": "STANDING",
    "VSORRES": "145",
    "VSORRESU": "mmHg",
    "VSSTRESC": "145",
    "VSSTRESN": 145.0,
    "VSSTRESU": "mmHg",
    "VSSTAT": "",
    "VSLOC": "",
    "VSBLFL": "",
    "VISITNUM": 3.5,
    "VISIT": "AMBUL ECG PLACEMENT",
    "VISITDY": 13.0,
    "VSDTC": "2013-07-31",
    "VSDY": 13.0,
    "VSTPT": "AFTER STANDING FOR 3 MINUTES",
    "VSTPTNUM": 817.0,
    "VSELTM": "PT3M",
    "VSTPTREF": "PATIENT STANDING"
  },
  {
    "STUDYID": "CDISCPILOT01",
    "DOMAIN": "VS",
    "USUBJID": "01-701-1028",
    "VSSEQ": 98.0,
    "VSTESTCD": "SYSBP",
    "VSTEST": "Systolic Blood Pressure",
    "VSPOS": "SUPINE",
    "VSORRES": "134",
    "VSORRESU": "mmHg",
    "VSSTRESC": "134",
    "VSSTRESN": 134.0,
    "VSSTRESU": "mmHg",
    "VSSTAT": "",
    "VSLOC": "",
    "VSBLFL": "",
    "VISITNUM": 4.0,
    "VISIT": "WEEK 2",
    "VISITDY": 14.0,
    "VSDTC": "2013-08-01",
    "VSDY": 14.0,
    "VSTPT": "AFTER LYING DOWN FOR 5 MINUTES",
    "VSTPTNUM": 815.0,
    "VSELTM": "PT5M",
    "VSTPTREF": "PATIENT SUPINE"
  },
  {
    "STUDYID": "CDISCPILOT01",
    "DOMAIN": "VS",
    "USUBJID": "01-701-1028",
    "VSSEQ": 99.0,
    "VSTESTCD": "SYSBP",
    "VSTEST": "Systolic Blood Pressure",
    "VSPOS": "STANDING",
    "VSORRES": "138",
    "VSORRESU": "mmHg",
    "VSSTRESC": "138",
    "VSSTRESN": 138.0,
    "VSSTRESU": "mmHg",
    "VSSTAT": "",
    "VSLOC": "",
    "VSBLFL": "",
    "VISITNUM": 4.0,
    "VISIT": "WEEK 2",
    "VISITDY": 14.0,
    "VSDTC": "2013-08-01",
    "VSDY": 14.0,
    "VSTPT": "AFTER STANDING FOR 1 MINUTE",
    "VSTPTNUM": 816.0,
    "VSELTM": "PT1M",
    "VSTPTREF": "PATIENT STANDING"
  },
  {
    "STUDYID": "CDISCPILOT01",
    "DOMAIN": "VS",
    "USUBJID": "01-701-1028",
    "VSSEQ": 100.0,
    "VSTESTCD": "SYSBP",
    "VSTEST": "Systolic Blood Pressure",
    "VSPOS": "STANDING",
    "VSORRES": "131",
    "VSORRESU": "mmHg",
    "VSSTRESC": "131",
    "VSSTRESN": 131.0,
    "VSSTRESU": "mmHg",
    "VSSTAT": "",
    "VSLOC": "",
    "VSBLFL": "",
    "VISITNUM": 4.0,
    "VISIT": "WEEK 2",
    "VISITDY": 14.0,
    "VSDTC": "2013-08-01",
    "VSDY": 14.0,
    "VSTPT": "AFTER STANDING FOR 3 MINUTES",
    "VSTPTNUM": 817.0,
    "VSELTM": "PT3M",
    "VSTPTREF": "PATIENT STANDING"
  },
  {
    "STUDYID": "CDISCPILOT01",
    "DOMAIN": "VS",
    "USUBJID": "01-701-1028",
    "VSSEQ": 101.0,
    "VSTESTCD": "SYSBP",
    "VSTEST": "Systolic Blood Pressure",
    "VSPOS": "SUPINE",
    "VSORRES": "130",
    "VSORRESU": "mmHg",
    "VSSTRESC": "130",
    "VSSTRESN": 130.0,
    "VSSTRESU": "mmHg",
    "VSSTAT": "",
    "VSLOC": "",
    "VSBLFL": "",
    "VISITNUM": 5.0,
    "VISIT": "WEEK 4",
    "VISITDY": 28.0,
    "VSDTC": "2013-08-14",
    "VSDY": 27.0,
    "VSTPT": "AFTER LYING DOWN FOR 5 MINUTES",
    "VSTPTNUM": 815.0,
    "VSELTM": "PT5M",
    "VSTPTREF": "PATIENT SUPINE"
  },
  {
    "STUDYID": "CDISCPILOT01",
    "DOMAIN": "VS",
    "USUBJID": "01-701-1028",
    "VSSEQ": 102.0,
    "VSTESTCD": "SYSBP",
    "VSTEST": "Systolic Blood Pressure",
    "VSPOS": "STANDING",
    "VSORRES": "130",
    "VSORRESU": "mmHg",
    "VSSTRESC": "130",
    "VSSTRESN": 130.0,
    "VSSTRESU": "mmHg",
    "VSSTAT": "",
    "VSLOC": "",
    "VSBLFL": "",
    "VISITNUM": 5.0,
    "VISIT": "WEEK 4",
    "VISITDY": 28.0,
    "VSDTC": "2013-08-14",
    "VSDY": 27.0,
    "VSTPT": "AFTER STANDING FOR 1 MINUTE",
    "VSTPTNUM": 816.0,
    "VSELTM": "PT1M",
    "VSTPTREF": "PATIENT STANDING"
  },
  {
    "STUDYID": "CDISCPILOT01",
    "DOMAIN": "VS",
    "USUBJID": "01-701-1028",
    "VSSEQ": 103.0,
    "VSTESTCD": "SYSBP",
    "VSTEST": "Systolic Blood Pressure",
    "VSPOS": "STANDING",
    "VSORRES": "138",
    "VSORRESU": "mmHg",
    "VSSTRESC": "138",
    "VSSTRESN": 138.0,
    "VSSTRESU": "mmHg",
    "VSSTAT": "",
    "VSLOC": "",
    "VSBLFL": "",
    "VISITNUM": 5.0,
    "VISIT": "WEEK 4",
    "VISITDY": 28.0,
    "VSDTC": "2013-08-14",
    "VSDY": 27.0,
    "VSTPT": "AFTER STANDING FOR 3 MINUTES",
    "VSTPTNUM": 817.0,
    "VSELTM": "PT3M",
    "VSTPTREF": "PATIENT STANDING"
  },
  {
    "STUDYID": "CDISCPILOT01",
    "DOMAIN": "VS",
    "USUBJID": "01-701-1028",
    "VSSEQ": 104.0,
    "VSTESTCD": "SYSBP",
    "VSTEST": "Systolic Blood Pressure",
    "VSPOS": "SUPINE",
    "VSORRES": "138",
    "VSORRESU": "mmHg",
    "VSSTRESC": "138",
    "VSSTRESN": 138.0,
    "VSSTRESU": "mmHg",
    "VSSTAT": "",
    "VSLOC": "",
    "VSBLFL": "",
    "VISITNUM": 6.0,
    "VISIT": "AMBUL ECG REMOVAL",
    "VISITDY": 30.0,
    "VSDTC": "2013-08-16",
    "VSDY": 29.0,
    "VSTPT": "AFTER LYING DOWN FOR 5 MINUTES",
    "VSTPTNUM": 815.0,
    "VSELTM": "PT5M",
    "VSTPTREF": "PATIENT SUPINE"
  },
  {
    "STUDYID": "CDISCPILOT01",
    "DOMAIN": "VS",
    "USUBJID": "01-701-1028",
    "VSSEQ": 105.0,
    "VSTESTCD": "SYSBP",
    "VSTEST": "Systolic Blood Pressure",
    "VSPOS": "STANDING",
    "VSORRES": "138",
    "VSORRESU": "mmHg",
    "VSSTRESC": "138",
    "VSSTRESN": 138.0,
    "VSSTRESU": "mmHg",
    "VSSTAT": "",
    "VSLOC": "",
    "VSBLFL": "",
    "VISITNUM": 6.0,
    "VISIT": "AMBUL ECG REMOVAL",
    "VISITDY": 30.0,
    "VSDTC": "2013-08-16",
    "VSDY": 29.0,
    "VSTPT": "AFTER STANDING FOR 1 MINUTE",
    "VSTPTNUM": 816.0,
    "VSELTM": "PT1M",
    "VSTPTREF": "PATIENT STANDING"
  },
  {
    "STUDYID": "CDISCPILOT01",
    "DOMAIN": "VS",
    "USUBJID": "01-701-1028",
    "VSSEQ": 106.0,
    "VSTESTCD": "SYSBP",
    "VSTEST": "Systolic Blood Pressure",
    "VSPOS": "STANDING",
    "VSORRES": "146",
    "VSORRESU": "mmHg",
    "VSSTRESC": "146",
    "VSSTRESN": 146.0,
    "VSSTRESU": "mmHg",
    "VSSTAT": "",
    "VSLOC": "",
    "VSBLFL": "",
    "VISITNUM": 6.0,
    "VISIT": "AMBUL ECG REMOVAL",
    "VISITDY": 30.0,
    "VSDTC": "2013-08-16",
    "VSDY": 29.0,
    "VSTPT": "AFTER STANDING FOR 3 MINUTES",
    "VSTPTNUM": 817.0,
    "VSELTM": "PT3M",
    "VSTPTREF": "PATIENT STANDING"
  },
  {
    "STUDYID": "CDISCPILOT01",
    "DOMAIN": "VS",
    "USUBJID": "01-701-1028",
    "VSSEQ": 107.0,
    "VSTESTCD": "SYSBP",
    "VSTEST": "Systolic Blood Pressure",
    "VSPOS": "SUPINE",
    "VSORRES": "131",
    "VSORRESU": "mmHg",
    "VSSTRESC": "131",
    "VSSTRESN": 131.0,
    "VSSTRESU": "mmHg",
    "VSSTAT": "",
    "VSLOC": "",
    "VSBLFL": "",
    "VISITNUM": 7.0,
    "VISIT": "WEEK 6",
    "VISITDY": 42.0,
    "VSDTC": "2013-08-29",
    "VSDY": 42.0,
    "VSTPT": "AFTER LYING DOWN FOR 5 MINUTES",
    "VSTPTNUM": 815.0,
    "VSELTM": "PT5M",
    "VSTPTREF": "PATIENT SUPINE"
  },
  {
    "STUDYID": "CDISCPILOT01",
    "DOMAIN": "VS",
    "USUBJID": "01-701-1028",
    "VSSEQ": 108.0,
    "VSTESTCD": "SYSBP",
    "VSTEST": "Systolic Blood Pressure",
    "VSPOS": "STANDING",
    "VSORRES": "131",
    "VSORRESU": "mmHg",
    "VSSTRESC": "131",
    "VSSTRESN": 131.0,
    "VSSTRESU": "mmHg",
    "VSSTAT": "",
    "VSLOC": "",
    "VSBLFL": "",
    "VISITNUM": 7.0,
    "VISIT": "WEEK 6",
    "VISITDY": 42.0,
    "VSDTC": "2013-08-29",
    "VSDY": 42.0,
    "VSTPT": "AFTER STANDING FOR 1 MINUTE",
    "VSTPTNUM": 816.0,
    "VSELTM": "PT1M",
    "VSTPTREF": "PATIENT STANDING"
  },
  {
    "STUDYID": "CDISCPILOT01",
    "DOMAIN": "VS",
    "USUBJID": "01-701-1028",
    "VSSEQ": 109.0,
    "VSTESTCD": "SYSBP",
