<?xml version="1.0" encoding="UTF-8"?>
<?xml-stylesheet type="text/xsl" href="stylesheets/crf_1_3_2.xsl"?>
<ODM xmlns="http://www.cdisc.org/ns/odm/v1.3" xmlns:def="http://www.cdisc.org/ns/def/v2.1" ODMVersion="1.3.2" FileOID="odm.xml" FileType="Snapshot" CreationDateTime="2024-09-06T09:53:42.385602" Originator="data4knowledge" SourceSystem="Study Service" SourceSystemVersion="alpha1" def:Context="Other" xmlns:sdm="http://www.cdisc.org/ns/studydesign/v1.0" xmlns:v4="http://www.viedoc.net/ns/v4" AsOfDateTime="2024-06-13T10:34:00.768Z" Granularity="Metadata">
   <Study OID="H2Q-MC-LZZT">
      <GlobalVariables>
         <StudyName>H2Q-MC-LZZT</StudyName>
         <StudyDescription>The discontinuation rate associated with this oral dosing regimen was 58.6% in previous studies, and alternative clinical strategies have been sought to improve tolerance for the compound. To that end, development of a Transdermal Therapeutic System (TTS) has been initiated.</StudyDescription>
         <ProtocolName>Protocol_Document_CDISC PILOT - LZZT</ProtocolName>
      </GlobalVariables>
      <MetaDataVersion OID="47343f4e-c9e0-44cf-b5de-09c3baf455d5" Name="H2Q-MC-LZZT" Description="This is some kind of description" def:DefineVersion="2.1.7">
         <Protocol>
            <Description>
               <TranslatedText xml:lang="en">The main design for the study</TranslatedText>
            </Description>
            <StudyEventRef StudyEventOID="Activity_1" OrderNumber="1" Mandatory="No" />
            <StudyEventRef StudyEventOID="Activity_2" OrderNumber="2" Mandatory="No" />
            <StudyEventRef StudyEventOID="Activity_3" OrderNumber="3" Mandatory="No" />
            <StudyEventRef StudyEventOID="Activity_4" OrderNumber="4" Mandatory="No" />
            <StudyEventRef StudyEventOID="Activity_5" OrderNumber="5" Mandatory="No" />
            <StudyEventRef StudyEventOID="Activity_6" OrderNumber="6" Mandatory="No" />
            <StudyEventRef StudyEventOID="Activity_7" OrderNumber="7" Mandatory="No" />
            <StudyEventRef StudyEventOID="Activity_8" OrderNumber="8" Mandatory="No" />
            <sdm:Summary>
               <Description>
                  <TranslatedText xml:lang="en">Some other description</TranslatedText>
               </Description>
            </sdm:Summary>
            <sdm:Structure>
               <sdm:ActivityDef OID="ad_Activity_1" v4:StartMethodOID="MD_FIRST_ACTIVITY" name="Activity_1">
                  <Description>
                     <TranslatedText xml:lang="en">Activity_1</TranslatedText>
                  </Description>
                  <FormRef FormOID="fd_Informed_consent" Mandatory="No" />
               </sdm:ActivityDef>
               <sdm:ActivityDef OID="ad_Activity_2" name="Activity_2">
                  <Description>
                     <TranslatedText xml:lang="en">Activity_2</TranslatedText>
                  </Description>
                  <FormRef FormOID="fd_Inclusion/exclusion_criteria" Mandatory="No" />
               </sdm:ActivityDef>
               <sdm:ActivityDef OID="ad_Activity_3" name="Activity_3">
                  <Description>
                     <TranslatedText xml:lang="en">Activity_3</TranslatedText>
                  </Description>
                  <FormRef FormOID="fd_Patient_number_assigned" Mandatory="No" />
               </sdm:ActivityDef>
               <sdm:ActivityDef OID="ad_Activity_4" name="Activity_4">
                  <Description>
                     <TranslatedText xml:lang="en">Activity_4</TranslatedText>
                  </Description>
                  <FormRef FormOID="fd_Demographics" Mandatory="No" />
               </sdm:ActivityDef>
               <sdm:ActivityDef OID="ad_Activity_5" name="Activity_5">
                  <Description>
                     <TranslatedText xml:lang="en">Activity_5</TranslatedText>
                  </Description>
                  <FormRef FormOID="fd_Hachinski" Mandatory="No" />
               </sdm:ActivityDef>
               <sdm:ActivityDef OID="ad_Activity_6" name="Activity_6">
                  <Description>
                     <TranslatedText xml:lang="en">Activity_6</TranslatedText>
                  </Description>
                  <FormRef FormOID="fd_MMSE" Mandatory="No" />
               </sdm:ActivityDef>
               <sdm:ActivityDef OID="ad_Activity_7" name="Activity_7">
                  <Description>
                     <TranslatedText xml:lang="en">Activity_7</TranslatedText>
                  </Description>
                  <FormRef FormOID="fd_Physical_examination" Mandatory="No" />
               </sdm:ActivityDef>
               <sdm:ActivityDef OID="ad_Activity_8" name="Activity_8">
                  <Description>
                     <TranslatedText xml:lang="en">Activity_8</TranslatedText>
                  </Description>
                  <FormRef FormOID="fd_Medical_history" Mandatory="No" />
               </sdm:ActivityDef>
               <sdm:Workflow>
                  <sdm:StudyStart>
                     <Description>
                        <TranslatedText xml:lang="en">informed consent</TranslatedText>
                     </Description>
                     <sdm:ActivityRef ActivityOID="ad_Activity_1" />
                  </sdm:StudyStart>
                  <sdm:StudyFinish>
                     <sdm:ActivityRef ActivityOID="ad_Activity_8" />
                     <Description>
                        <TranslatedText xml:lang="en">last visit</TranslatedText>
                     </Description>
                  </sdm:StudyFinish>
                  <sdm:PathCanFinish>
                     <Description>
                        <TranslatedText xml:lang="en">PathCanFinish</TranslatedText>
                     </Description>
                  </sdm:PathCanFinish>
               </sdm:Workflow>
               <sdm:Timing />
            </sdm:Structure>
         </Protocol>
         <StudyEventDef>
            <Description>
               <TranslatedText xml:lang="en">Informed consent</TranslatedText>
            </Description>
            <FormRef FormOID="fd_Informed_consent" Mandatory="No" />
            <sdm:ActivityRef ActivityOID="ad_Activity_1" />
         </StudyEventDef>
         <StudyEventDef>
            <Description>
               <TranslatedText xml:lang="en">Inclusion/exclusion criteria</TranslatedText>
            </Description>
            <FormRef FormOID="fd_Inclusion/exclusion_criteria" Mandatory="No" />
         </StudyEventDef>
         <StudyEventDef>
            <Description>
               <TranslatedText xml:lang="en">Patient number assigned</TranslatedText>
            </Description>
            <FormRef FormOID="fd_Patient_number_assigned" Mandatory="No" />
         </StudyEventDef>
         <StudyEventDef>
            <Description>
               <TranslatedText xml:lang="en">Demographics</TranslatedText>
            </Description>
            <FormRef FormOID="fd_Demographics" Mandatory="No" />
            <sdm:ActivityRef ActivityOID="ad_Activity_4" />
            <sdm:ActivityRef ActivityOID="ad_Activity_4" />
            <sdm:ActivityRef ActivityOID="ad_Activity_4" />
         </StudyEventDef>
         <StudyEventDef>
            <Description>
               <TranslatedText xml:lang="en">Hachinski</TranslatedText>
            </Description>
            <FormRef FormOID="fd_Hachinski" Mandatory="No" />
         </StudyEventDef>
         <StudyEventDef>
            <Description>
               <TranslatedText xml:lang="en">MMSE</TranslatedText>
            </Description>
            <FormRef FormOID="fd_MMSE" Mandatory="No" />
         </StudyEventDef>
         <StudyEventDef>
            <Description>
               <TranslatedText xml:lang="en">Physical examination</TranslatedText>
            </Description>
            <FormRef FormOID="fd_Physical_examination" Mandatory="No" />
         </StudyEventDef>
         <StudyEventDef>
            <Description>
               <TranslatedText xml:lang="en">Medical history</TranslatedText>
            </Description>
            <FormRef FormOID="fd_Medical_history" Mandatory="No" />
         </StudyEventDef>
         <FormDef OID="fd_Informed_consent">
            <ItemGroupRef ItemGroupOID="igd_Informed Consent Obtained" />
         </FormDef>
         <FormDef OID="fd_Demographics">
            <ItemGroupRef ItemGroupOID="igd_Date of Birth" />
            <ItemGroupRef ItemGroupOID="igd_Race" />
            <ItemGroupRef ItemGroupOID="igd_Sex" />
         </FormDef>
         <FormDef OID="fd_Demographics">
            <ItemGroupRef ItemGroupOID="igd_Date of Birth" />
            <ItemGroupRef ItemGroupOID="igd_Race" />
            <ItemGroupRef ItemGroupOID="igd_Sex" />
         </FormDef>
         <FormDef OID="fd_Demographics">
            <ItemGroupRef ItemGroupOID="igd_Date of Birth" />
            <ItemGroupRef ItemGroupOID="igd_Race" />
            <ItemGroupRef ItemGroupOID="igd_Sex" />
         </FormDef>
         <ItemGroupDef OID="igd_Informed Consent Obtained">
            <ItemRef OID="IT.--DTC.https://study.d4k.dk/study-cdisc-pilot-lzzt/b2fd136f-0c70-4d4e-9ae3-039f099a2d06/ee556b38-f095-4e98-814c-728421897cae" Mandatory="No" />
            <ItemRef OID="IT.DSTERM.https://study.d4k.dk/study-cdisc-pilot-lzzt/b2fd136f-0c70-4d4e-9ae3-039f099a2d06/47bf717b-9853-4b65-b751-62bd2bda183a" Mandatory="No" />
            <ItemRef OID="IT.DSDECOD.https://study.d4k.dk/study-cdisc-pilot-lzzt/b2fd136f-0c70-4d4e-9ae3-039f099a2d06/6d1eb3b2-9c8f-4518-834b-452630ac4f72" Mandatory="No" />
            <ItemRef OID="IT.DSSTDTC.https://study.d4k.dk/study-cdisc-pilot-lzzt/b2fd136f-0c70-4d4e-9ae3-039f099a2d06/73fae3ec-679d-4651-9537-e2f8df11da19" Mandatory="No" />
         </ItemGroupDef>
         <ItemGroupDef OID="igd_Date of Birth">
            <ItemRef OID="IT.--DTC.https://study.d4k.dk/study-cdisc-pilot-lzzt/b2fd136f-0c70-4d4e-9ae3-039f099a2d06/dffb9378-c8b9-4b59-bf02-2b501e20ed0a" Mandatory="No" />
            <ItemRef OID="IT.BRTHDTC.https://study.d4k.dk/study-cdisc-pilot-lzzt/b2fd136f-0c70-4d4e-9ae3-039f099a2d06/8e55f64d-1c23-4fda-98c8-88019aa57e7d" Mandatory="No" />
         </ItemGroupDef>
         <ItemGroupDef OID="igd_Race">
            <ItemRef OID="IT.--DTC.https://study.d4k.dk/study-cdisc-pilot-lzzt/b2fd136f-0c70-4d4e-9ae3-039f099a2d06/38b9ac80-e5e5-413c-9662-e3de4e8b4d63" Mandatory="No" />
            <ItemRef OID="IT.Race.https://study.d4k.dk/study-cdisc-pilot-lzzt/b2fd136f-0c70-4d4e-9ae3-039f099a2d06/1b743df4-0cbc-4ca5-850a-79fe7fa683a4" Mandatory="No" />
         </ItemGroupDef>
         <ItemGroupDef OID="igd_Sex">
            <ItemRef OID="IT.--DTC.https://study.d4k.dk/study-cdisc-pilot-lzzt/b2fd136f-0c70-4d4e-9ae3-039f099a2d06/16138cce-af7e-4f4d-887e-dbddb3e16df3" Mandatory="No" />
            <ItemRef OID="IT.Sex.https://study.d4k.dk/study-cdisc-pilot-lzzt/b2fd136f-0c70-4d4e-9ae3-039f099a2d06/2533782d-6f14-4565-a9fe-33114e1892f4" Mandatory="No" />
         </ItemGroupDef>
         <ItemDef OID="IT.--DTC.https://study.d4k.dk/study-cdisc-pilot-lzzt/b2fd136f-0c70-4d4e-9ae3-039f099a2d06/ee556b38-f095-4e98-814c-728421897cae">
            <Question>
               <TranslatedText xml:lang="--DTC">en</TranslatedText>
            </Question>
         </ItemDef>
         <ItemDef OID="IT.DSTERM.https://study.d4k.dk/study-cdisc-pilot-lzzt/b2fd136f-0c70-4d4e-9ae3-039f099a2d06/47bf717b-9853-4b65-b751-62bd2bda183a">
            <Question>
               <TranslatedText xml:lang="DSTERM">en</TranslatedText>
            </Question>
         </ItemDef>
         <ItemDef OID="IT.DSDECOD.https://study.d4k.dk/study-cdisc-pilot-lzzt/b2fd136f-0c70-4d4e-9ae3-039f099a2d06/6d1eb3b2-9c8f-4518-834b-452630ac4f72">
            <Question>
               <TranslatedText xml:lang="DSDECOD">en</TranslatedText>
            </Question>
         </ItemDef>
         <ItemDef OID="IT.DSSTDTC.https://study.d4k.dk/study-cdisc-pilot-lzzt/b2fd136f-0c70-4d4e-9ae3-039f099a2d06/73fae3ec-679d-4651-9537-e2f8df11da19">
            <Question>
               <TranslatedText xml:lang="DSSTDTC">en</TranslatedText>
            </Question>
         </ItemDef>
         <ItemDef OID="IT.--DTC.https://study.d4k.dk/study-cdisc-pilot-lzzt/b2fd136f-0c70-4d4e-9ae3-039f099a2d06/dffb9378-c8b9-4b59-bf02-2b501e20ed0a">
            <Question>
               <TranslatedText xml:lang="--DTC">en</TranslatedText>
            </Question>
         </ItemDef>
         <ItemDef OID="IT.BRTHDTC.https://study.d4k.dk/study-cdisc-pilot-lzzt/b2fd136f-0c70-4d4e-9ae3-039f099a2d06/8e55f64d-1c23-4fda-98c8-88019aa57e7d">
            <Question>
               <TranslatedText xml:lang="BRTHDTC">en</TranslatedText>
            </Question>
         </ItemDef>
         <ItemDef OID="IT.--DTC.https://study.d4k.dk/study-cdisc-pilot-lzzt/b2fd136f-0c70-4d4e-9ae3-039f099a2d06/38b9ac80-e5e5-413c-9662-e3de4e8b4d63">
            <Question>
               <TranslatedText xml:lang="--DTC">en</TranslatedText>
            </Question>
         </ItemDef>
         <ItemDef OID="IT.Race.https://study.d4k.dk/study-cdisc-pilot-lzzt/b2fd136f-0c70-4d4e-9ae3-039f099a2d06/1b743df4-0cbc-4ca5-850a-79fe7fa683a4">
            <Question>
               <TranslatedText xml:lang="Race">en</TranslatedText>
            </Question>
         </ItemDef>
         <ItemDef OID="IT.--DTC.https://study.d4k.dk/study-cdisc-pilot-lzzt/b2fd136f-0c70-4d4e-9ae3-039f099a2d06/16138cce-af7e-4f4d-887e-dbddb3e16df3">
            <Question>
               <TranslatedText xml:lang="--DTC">en</TranslatedText>
            </Question>
         </ItemDef>
         <ItemDef OID="IT.Sex.https://study.d4k.dk/study-cdisc-pilot-lzzt/b2fd136f-0c70-4d4e-9ae3-039f099a2d06/2533782d-6f14-4565-a9fe-33114e1892f4">
            <Question>
               <TranslatedText xml:lang="Sex">en</TranslatedText>
            </Question>
         </ItemDef>
      </MetaDataVersion>
   </Study>
</ODM>